{"apple": 1, "aapl": 2, "i": 3, "need": 4, "one": 5, "onerepublic": 6, "iphone": 7, "future": 8, "now": 9, "computers": 10, "batteries": 11, "studio": 12, "ft": 13, "outlet": 14, "is": 15, "store": 16, "the": 17, "new": 18, "teamcavuto": 19, "nyc": 20, "agree": 21, "stage": 22, "protesters": 23, "anger": 24, "phone": 25, "protests": 26, "misplaced": 27, "diein": 28, "retweet": 29, "get": 30, "apples": 31, "inc": 32, "update": 33, "like": 34, "fuck": 35, "my": 36, "to": 37, "it": 38, "app": 39, "intraday": 40, "december": 41, "why": 42, "you": 43, "ipad": 44, "make": 45, "free": 46, "shit": 47, "jobs": 48, "steve": 49, "ios": 50, "fix": 51, "google": 52, "thanks": 53, "ipod": 54, "a": 55, "stocks": 56, "could": 57, "levels": 58, "stock": 59, "time": 60, "macbook": 61, "iphones": 62, "fibonacci": 63, "technicals": 64, "back": 65, "and": 66, "trading": 67, "u": 68, "this": 69, "watch": 70, "best": 71, "users": 72, "in": 73, "please": 74, "buy": 75, "got": 76, "great": 77, "still": 78, "media": 79, "what": 80, "would": 81, "for": 82, "how": 83, "pay": 84, "love": 85, "use": 86, "sales": 87, "year": 88, "will": 89, "apps": 90, "us": 91, "hey": 92, "work": 93, "even": 94, "music": 95, "tv": 96, "on": 97, "emoji": 98, "itunes": 99, "trade": 100, "really": 101, "price": 102, "mac": 103, "good": 104, "timcook": 105, "next": 106, "want": 107, "today": 108, "rt": 109, "fucking": 110, "stores": 111, "going": 112, "know": 113, "twitter": 114, "products": 115, "market": 116, "mkt": 117, "social": 118, "battery": 119, "much": 120, "of": 121, "so": 122, "ceo": 123, "computer": 124, "last": 125, "up": 126, "jpdesloges": 127, "monday": 128, "thank": 129, "first": 130, "plus": 131, "tech": 132, "can": 133, "blog": 134, "working": 135, "stockaction": 136, "not": 137, "facebook": 138, "tim": 139, "cook": 140, "pro": 141, "help": 142, "together": 143, "people": 144, "go": 145, "android": 146, "finally": 147, "lawsuit": 148, "have": 149, "dear": 150, "antitrust": 151, "thehill": 152, "think": 153, "just": 154, "premium": 155, "yosemite": 156, "we": 157, "stop": 158, "patent": 159, "comments": 160, "hiring": 161, "samsung": 162, "service": 163, "screen": 164, "charger": 165, "your": 166, "with": 167, "deleted": 168, "way": 169, "that": 170, "via": 171, "hate": 172, "target": 173, "aaplapple": 174, "may": 175, "wtf": 176, "if": 177, "from": 178, "let": 179, "well": 180, "life": 181, "needs": 182, "workshops": 183, "see": 184, "better": 185, "federal": 186, "day": 187, "customer": 188, "no": 189, "trial": 190, "case": 191, "every": 192, "unlock": 193, "be": 194, "says": 195, "mini": 196, "take": 197, "guys": 198, "drop": 199, "but": 200, "right": 201, "companies": 202, "law": 203, "chargers": 204, "updated": 205, "support": 206, "video": 207, "problem": 208, "demand": 209, "holiday": 210, "ever": 211, "more": 212, "yall": 213, "ur": 214, "final": 215, "say": 216, "come": 217, "stevejobs": 218, "do": 219, "ipods": 220, "la": 221, "hourofcode": 222, "guru": 223, "makes": 224, "justice": 225, "all": 226, "billion": 227, "never": 228, "week": 229, "here": 230, "range": 231, "amazon": 232, "emojis": 233, "top": 234, "money": 235, "keep": 236, "department": 237, "cites": 238, "century": 239, "they": 240, "share": 241, "comes": 242, "god": 243, "getting": 244, "making": 245, "world": 246, "wait": 247, "big": 248, "lol": 249, "thing": 250, "product": 251, "quarter": 252, "important": 253, "list": 254, "air": 255, "suck": 256, "ass": 257, "days": 258, "me": 259, "updates": 260, "gay": 261, "trying": 262, "without": 263, "are": 264, "bill": 265, "awesome": 266, "when": 267, "touch": 268, "most": 269, "supporting": 270, "warming": 271, "emails": 272, "look": 273, "hard": 274, "na": 275, "its": 276, "news": 277, "gets": 278, "hold": 279, "raised": 280, "changes": 281, "profit": 282, "nice": 283, "something": 284, "release": 285, "named": 286, "tell": 287, "china": 288, "india": 289, "shannonmmiller": 290, "cnbctv": 291, "since": 292, "putcallratios": 293, "photo": 294, "phones": 295, "visit": 296, "able": 297, "yo": 298, "at": 299, "many": 300, "wrong": 301, "months": 302, "japan": 303, "detected": 304, "mark": 305, "center": 306, "open": 307, "month": 308, "change": 309, "yet": 310, "another": 311, "tuesday": 312, "bad": 313, "launch": 314, "sucks": 315, "stuff": 316, "years": 317, "patents": 318, "code": 319, "mobile": 320, "block": 321, "million": 322, "eps": 323, "damn": 324, "court": 325, "using": 326, "laptop": 327, "appstore": 328, "game": 329, "power": 330, "ta": 331, "call": 332, "yeah": 333, "messages": 334, "company": 335, "device": 336, "sell": 337, "customers": 338, "genius": 339, "siri": 340, "streaming": 341, "things": 342, "tweether": 343, "search": 344, "an": 345, "made": 346, "times": 347, "hell": 348, "pt": 349, "hour": 350, "analyst": 351, "said": 352, "idea": 353, "works": 354, "inch": 355, "show": 356, "happened": 357, "wozniak": 358, "safari": 359, "looks": 360, "autocorrect": 361, "motley": 362, "fool": 363, "check": 364, "seems": 365, "done": 366, "earth": 367, "after": 368, "thursday": 369, "left": 370, "ads": 371, "crash": 372, "bought": 373, "rumors": 374, "full": 375, "huge": 376, "im": 377, "ok": 378, "red": 379, "as": 380, "must": 381, "oh": 382, "stupid": 383, "longer": 384, "website": 385, "send": 386, "happy": 387, "someone": 388, "yes": 389, "technology": 390, "shares": 391, "amazing": 392, "applewatch": 393, "paid": 394, "put": 395, "reasons": 396, "old": 397, "waiting": 398, "profits": 399, "weeks": 400, "away": 401, "earnings": 402, "facetime": 403, "okay": 404, "plans": 405, "maps": 406, "garage": 407, "used": 408, "icloud": 409, "nothing": 410, "lot": 411, "wish": 412, "than": 413, "play": 414, "fb": 415, "words": 416, "some": 417, "posted": 418, "version": 419, "os": 420, "x": 421, "digital": 422, "who": 423, "delete": 424, "retail": 425, "set": 426, "hours": 427, "man": 428, "bar": 429, "design": 430, "already": 431, "innovation": 432, "might": 433, "two": 434, "camera": 435, "real": 436, "card": 437, "friday": 438, "songs": 439, "turning": 440, "almost": 441, "minutes": 442, "morning": 443, "stay": 444, "fight": 445, "wifi": 446, "fall": 447, "business": 448, "christmas": 449, "long": 450, "nightly": 451, "forbes": 452, "night": 453, "fail": 454, "there": 455, "strong": 456, "software": 457, "upgrade": 458, "internet": 459, "cool": 460, "anyone": 461, "tried": 462, "album": 463, "email": 464, "applepay": 465, "reason": 466, "close": 467, "broken": 468, "soon": 469, "jmp": 470, "jakeflem": 471, "wow": 472, "antidiscrimination": 473, "security": 474, "stevewoz": 475, "increase": 476, "fashion": 477, "plaintiff": 478, "excited": 479, "harry": 480, "potter": 481, "elevate": 482, "second": 483, "according": 484, "storage": 485, "galaxy": 486, "note": 487, "gave": 488, "data": 489, "nasdaq": 490, "did": 491, "follow": 492, "face": 493, "online": 494, "word": 495, "also": 496, "replace": 497, "actually": 498, "job": 499, "issue": 500, "ipads": 501, "issues": 502, "preopening": 503, "always": 504, "boost": 505, "protection": 506, "believe": 507, "slow": 508, "meet": 509, "radioshack": 510, "deal": 511, "sh": 512, "group": 513, "school": 514, "wednesday": 515, "has": 516, "fazenikan": 517, "alabama": 518, "stopped": 519, "learn": 520, "calls": 521, "supply": 522, "late": 523, "staff": 524, "buying": 525, "die": 526, "retina": 527, "lost": 528, "mean": 529, "give": 530, "cord": 531, "charge": 532, "startup": 533, "unboxing": 534, "feel": 535, "claims": 536, "become": 537, "home": 538, "talk": 539, "devices": 540, "feature": 541, "competition": 542, "annoying": 543, "thestreet": 544, "education": 545, "screens": 546, "planning": 547, "team": 548, "instead": 549, "helping": 550, "about": 551, "takes": 552, "our": 553, "gon": 554, "windows": 555, "start": 556, "middle": 557, "finger": 558, "early": 559, "imac": 560, "thinking": 561, "system": 562, "ad": 563, "developer": 564, "success": 565, "build": 566, "thought": 567, "zuckerberg": 568, "ubs": 569, "swiftkey": 570, "biggest": 571, "ago": 572, "install": 573, "seriously": 574, "verizon": 575, "keeps": 576, "aids": 577, "dont": 578, "wan": 579, "ha": 580, "post": 581, "losing": 582, "increases": 583, "warranty": 584, "imessage": 585, "maybe": 586, "less": 587, "heads": 588, "hope": 589, "wireless": 590, "keyboard": 591, "yesterday": 592, "selling": 593, "rating": 594, "cue": 595, "vs": 596, "credit": 597, "wants": 598, "taking": 599, "reportedly": 600, "or": 601, "piece": 602, "russia": 603, "suit": 604, "revenue": 605, "goog": 606, "should": 607, "goes": 608, "enough": 609, "find": 610, "bank": 611, "brand": 612, "playing": 613, "live": 614, "tweet": 615, "date": 616, "talks": 617, "b": 618, "bit": 619, "their": 620, "bring": 621, "these": 622, "ideas": 623, "donkey": 624, "which": 625, "myth": 626, "create": 627, "muslim": 628, "rd": 629, "flash": 630, "shows": 631, "past": 632, "drops": 633, "stand": 634, "headphones": 635, "anymore": 636, "dropped": 637, "launches": 638, "worth": 639, "microsoft": 640, "name": 641, "everyone": 642, "sold": 643, "care": 644, "completely": 645, "dying": 646, "changing": 647, "breaking": 648, "everything": 649, "between": 650, "surface": 651, "star": 652, "talking": 653, "amid": 654, "opening": 655, "key": 656, "deposition": 657, "due": 658, "canaccord": 659, "marketing": 660, "eddy": 661, "lack": 662, "mechanism": 663, "available": 664, "sorry": 665, "sprint": 666, "raises": 667, "player": 668, "rivals": 669, "freezing": 670, "sort": 671, "higher": 672, "ban": 673, "report": 674, "movie": 675, "short": 676, "anything": 677, "thinks": 678, "heck": 679, "sick": 680, "try": 681, "save": 682, "worse": 683, "spent": 684, "record": 685, "ask": 686, "point": 687, "problems": 688, "sometimes": 689, "told": 690, "leave": 691, "iwatch": 692, "services": 693, "applestore": 694, "citycreek": 695, "worst": 696, "starbucks": 697, "mhdadon": 698, "continue": 699, "id": 700, "house": 701, "page": 702, "hsmoghul": 703, "prison": 704, "smartwatch": 705, "games": 706, "weekends": 707, "had": 708, "cords": 709, "worlds": 710, "sync": 711, "network": 712, "connected": 713, "txed": 714, "switch": 715, "privacy": 716, "dec": 717, "growing": 718, "tablet": 719, "button": 720, "sure": 721, "break": 722, "over": 723, "broke": 724, "recent": 725, "barclays": 726, "morgan": 727, "stanley": 728, "cause": 729, "incs": 730, "fire": 731, "cofounder": 732, "pick": 733, "though": 734, "took": 735, "evidence": 736, "season": 737, "tf": 738, "beyond": 739, "hear": 740, "event": 741, "details": 742, "wont": 743, "currently": 744, "photos": 745, "loses": 746, "att": 747, "chromecast": 748, "officenerd": 749, "weekend": 750, "came": 751, "chinese": 752, "pricefixing": 753, "similar": 754, "telling": 755, "daily": 756, "whole": 757, "where": 758, "same": 759, "learning": 760, "influenster": 761, "because": 762, "type": 763, "suddenly": 764, "called": 765, "fucked": 766, "pretty": 767, "any": 768, "dies": 769, "setting": 770, "around": 771, "cost": 772, "coming": 773, "securities": 774, "went": 775, "consumers": 776, "reset": 777, "moves": 778, "visits": 779, "whitehouse": 780, "pls": 781, "number": 782, "died": 783, "macs": 784, "major": 785, "asap": 786, "purchase": 787, "five": 788, "deleting": 789, "reveals": 790, "figure": 791, "giveaway": 792, "crazy": 793, "uk": 794, "catching": 795, "programming": 796, "coding": 797, "former": 798, "omg": 799, "jcolenc": 800, "congratulations": 801, "fancy": 802, "jessepickard": 803, "kidding": 804, "naivana": 805, "applenws": 806, "non": 807, "running": 808, "ip": 809, "again": 810, "upgrading": 811, "win": 812, "youtube": 813, "aaplhere": 814, "story": 815, "faster": 816, "given": 817, "info": 818, "shipping": 819, "built": 820, "off": 821, "three": 822, "download": 823, "read": 824, "gain": 825, "clave": 826, "en": 827, "contra": 828, "yh": 829, "pictures": 830, "exactly": 831, "auto": 832, "turn": 833, "audio": 834, "cuts": 835, "excellent": 836, "netflix": 837, "does": 838, "w": 839, "ahead": 840, "sees": 841, "surprised": 842, "access": 843, "students": 844, "line": 845, "edtech": 846, "cracked": 847, "healthkit": 848, "featured": 849, "files": 850, "sony": 851, "green": 852, "rival": 853, "pieces": 854, "following": 855, "sign": 856, "innovative": 857, "acekituk": 858, "link": 859, "verr\u00eccktes": 860, "ger\u00eccht": 861, "zum": 862, "simple": 863, "blackberry": 864, "wearables": 865, "place": 866, "level": 867, "building": 868, "giving": 869, "program": 870, "weekly": 871, "against": 872, "calling": 873, "billgates": 874, "looking": 875, "decided": 876, "wanted": 877, "smart": 878, "cut": 879, "smartphone": 880, "allowing": 881, "firefox": 882, "amzn": 883, "monster": 884, "notifications": 885, "jesus": 886, "tired": 887, "reported": 888, "sincerely": 889, "step": 890, "tmobile": 891, "pissed": 892, "weak": 893, "haha": 894, "text": 895, "true": 896, "cyber": 897, "logic": 898, "little": 899, "spot": 900, "beats": 901, "trademark": 902, "trash": 903, "cant": 904, "person": 905, "investors": 906, "applebees": 907, "physical": 908, "third": 909, "phablet": 910, "gone": 911, "global": 912, "mail": 913, "message": 914, "password": 915, "street": 916, "improve": 917, "models": 918, "osx": 919, "else": 920, "etc": 921, "engineer": 922, "easy": 923, "pop": 924, "congrats": 925, "rumor": 926, "moment": 927, "ready": 928, "challenge": 929, "watches": 930, "flying": 931, "head": 932, "box": 933, "guy": 934, "cash": 935, "valley": 936, "official": 937, "upward": 938, "sunrise": 939, "expand": 940, "exchange": 941, "survey": 942, "different": 943, "gopro": 944, "too": 945, "stackizshort": 946, "exec": 947, "flag": 948, "brands": 949, "sunday": 950, "names": 951, "meme": 952, "smarter": 953, "schreier": 954, "lunchgod": 955, "adage": 956, "brooklyn": 957, "jimcramer": 958, "logo": 959, "contact": 960, "dumb": 961, "points": 962, "literally": 963, "latest": 964, "browser": 965, "pass": 966, "interesting": 967, "truly": 968, "behind": 969, "young": 970, "mt": 971, "automatically": 972, "annoyed": 973, "cybermonday": 974, "cases": 975, "forex": 976, "hamzeianalytics": 977, "charging": 978, "juicio": 979, "dead": 980, "percent": 981, "speak": 982, "contacts": 983, "book": 984, "fine": 985, "earned": 986, "correct": 987, "reading": 988, "course": 989, "nonretina": 990, "only": 991, "file": 992, "america": 993, "pages": 994, "wonder": 995, "homekit": 996, "options": 997, "fast": 998, "knows": 999, "reality": 1000, "easier": 1001, "bug": 1002, "memory": 1003, "saturday": 1004, "beating": 1005, "alarm": 1006, "folder": 1007, "genuity": 1008, "cheap": 1009, "lower": 1010, "sharp": 1011, "production": 1012, "hed": 1013, "places": 1014, "prices": 1015, "enjoying": 1016, "government": 1017, "trillion": 1018, "priced": 1019, "bears": 1020, "contracts": 1021, "double": 1022, "drive": 1023, "cap": 1024, "passes": 1025, "means": 1026, "probably": 1027, "ground": 1028, "explanation": 1029, "ups": 1030, "bgr": 1031, "through": 1032, "drm": 1033, "fuckin": 1034, "cramer": 1035, "solution": 1036, "add": 1037, "allow": 1038, "map": 1039, "hopefully": 1040, "yosemiteproblems": 1041, "targets": 1042, "ya": 1043, "reach": 1044, "happen": 1045, "bloombergtv": 1046, "bullshit": 1047, "legendary": 1048, "gives": 1049, "rules": 1050, "stick": 1051, "user": 1052, "run": 1053, "eye": 1054, "track": 1055, "largest": 1056, "very": 1057, "shopping": 1058, "receive": 1059, "down": 1060, "actual": 1061, "niggas": 1062, "appledec": 1063, "continues": 1064, "woz": 1065, "enterprise": 1066, "iot": 1067, "renoxalex": 1068, "releases": 1069, "questions": 1070, "asks": 1071, "falling": 1072, "order": 1073, "white": 1074, "shifts": 1075, "shout": 1076, "move": 1077, "lasts": 1078, "corporate": 1079, "web": 1080, "part": 1081, "recently": 1082, "bell": 1083, "mind": 1084, "appeals": 1085, "yea": 1086, "dollars": 1087, "bruh": 1088, "multiple": 1089, "certain": 1090, "question": 1091, "form": 1092, "end": 1093, "own": 1094, "languages": 1095, "leader": 1096, "aaplapples": 1097, "replaced": 1098, "kantar": 1099, "appletv": 1100, "australia": 1101, "cover": 1102, "push": 1103, "worldwide": 1104, "lead": 1105, "graphics": 1106, "mine": 1107, "integration": 1108, "adds": 1109, "side": 1110, "handle": 1111, "captures": 1112, "leaked": 1113, "bubble": 1114, "king": 1115, "answer": 1116, "quick": 1117, "sun": 1118, "chrome": 1119, "based": 1120, "gift": 1121, "fan": 1122, "useless": 1123, "despite": 1124, "rumours": 1125, "main": 1126, "differences": 1127, "disruptive": 1128, "host": 1129, "control": 1130, "feet": 1131, "recording": 1132, "constantly": 1133, "international": 1134, "yahoo": 1135, "samsungmobileus": 1136, "youll": 1137, "possible": 1138, "russellferg": 1139, "st": 1140, "attacks": 1141, "texas": 1142, "applecordfire": 1143, "option": 1144, "appleuk": 1145, "googles": 1146, "suppliers": 1147, "compliant": 1148, "ericgarner": 1149, "isnt": 1150, "macys": 1151, "pc": 1152, "loop": 1153, "itunesmusic": 1154, "swerviinnn": 1155, "brown": 1156, "murder": 1157, "leadtimes": 1158, "previous": 1159, "terrible": 1160, "ensure": 1161, "been": 1162, "out": 1163, "hp": 1164, "tesla": 1165, "espionage": 1166, "citigroup": 1167, "theyre": 1168, "lagging": 1169, "miniflash": 1170, "cat": 1171, "such": 1172, "was": 1173, "match": 1174, "minute": 1175, "portfolio": 1176, "calendar": 1177, "fixed": 1178, "notification": 1179, "determined": 1180, "nigga": 1181, "laws": 1182, "explain": 1183, "huh": 1184, "displeased": 1185, "clear": 1186, "employee": 1187, "sooooo": 1188, "voice": 1189, "whether": 1190, "dammit": 1191, "sentence": 1192, "exit": 1193, "rumoured": 1194, "by": 1195, "picks": 1196, "sector": 1197, "elnuevoherald": 1198, "ship": 1199, "smh": 1200, "reveal": 1201, "unseen": 1202, "donacamp": 1203, "brass": 1204, "band": 1205, "broadway": 1206, "winterseve": 1207, "gb": 1208, "peaked": 1209, "normal": 1210, "junk": 1211, "shitty": 1212, "airmiles": 1213, "fact": 1214, "none": 1215, "earphones": 1216, "beat": 1217, "bluetooth": 1218, "others": 1219, "notes": 1220, "write": 1221, "machines": 1222, "damage": 1223, "videos": 1224, "n": 1225, "startups": 1226, "images": 1227, "room": 1228, "experience": 1229, "plug": 1230, "chromebooks": 1231, "teams": 1232, "witness": 1233, "oil": 1234, "doomed": 1235, "movers": 1236, "aaplhow": 1237, "remove": 1238, "cards": 1239, "review": 1240, "local": 1241, "server": 1242, "estimates": 1243, "analysis": 1244, "later": 1245, "return": 1246, "model": 1247, "fails": 1248, "offering": 1249, "whatever": 1250, "turns": 1251, "fallen": 1252, "brief": 1253, "focusing": 1254, "while": 1255, "xcode": 1256, "growth": 1257, "dev": 1258, "remember": 1259, "sells": 1260, "prevent": 1261, "address": 1262, "awful": 1263, "offer": 1264, "valued": 1265, "kill": 1266, "sent": 1267, "designer": 1268, "sitting": 1269, "lock": 1270, "asking": 1271, "tlchat": 1272, "winnipeg": 1273, "items": 1274, "current": 1275, "testing": 1276, "rain": 1277, "da": 1278, "secrets": 1279, "forget": 1280, "aaplsteve": 1281, "samsungs": 1282, "ignore": 1283, "wit": 1284, "worked": 1285, "platform": 1286, "miss": 1287, "action": 1288, "rather": 1289, "features": 1290, "redbull": 1291, "research": 1292, "half": 1293, "watching": 1294, "crap": 1295, "loving": 1296, "carplay": 1297, "them": 1298, "aaplin": 1299, "district": 1300, "fbi": 1301, "bugs": 1302, "spend": 1303, "bs": 1304, "yep": 1305, "midair": 1306, "uber": 1307, "appointment": 1308, "cleared": 1309, "keyboards": 1310, "space": 1311, "charged": 1312, "protest": 1313, "shutitdown": 1314, "copy": 1315, "fat": 1316, "cute": 1317, "held": 1318, "texts": 1319, "difficult": 1320, "ebook": 1321, "whoever": 1322, "intel": 1323, "black": 1324, "heart": 1325, "webgl": 1326, "fades": 1327, "restart": 1328, "found": 1329, "twice": 1330, "replacing": 1331, "contract": 1332, "coverage": 1333, "devs": 1334, "thx": 1335, "hit": 1336, "didnt": 1337, "classaction": 1338, "repair": 1339, "cloud": 1340, "board": 1341, "during": 1342, "umogames": 1343, "approved": 1344, "af": 1345, "led": 1346, "sit": 1347, "cc": 1348, "invent": 1349, "orders": 1350, "seem": 1351, "trumps": 1352, "expect": 1353, "cyrustvirus": 1354, "laughing": 1355, "ringtone": 1356, "goodbye": 1357, "protect": 1358, "kind": 1359, "beatsbydre": 1360, "thermometer": 1361, "gold": 1362, "office": 1363, "definitely": 1364, "aye": 1365, "display": 1366, "bestbuy": 1367, "difference": 1368, "slc": 1369, "disturb": 1370, "benefits": 1371, "founder": 1372, "secretly": 1373, "downloaded": 1374, "fault": 1375, "purchased": 1376, "mavericks": 1377, "employees": 1378, "rolling": 1379, "position": 1380, "settings": 1381, "tells": 1382, "connection": 1383, "fam": 1384, "plugged": 1385, "hurry": 1386, "bonus": 1387, "class": 1388, "freaking": 1389, "awards": 1390, "ee": 1391, "gravity": 1392, "traffordcentre": 1393, "classic": 1394, "hears": 1395, "entire": 1396, "poor": 1397, "october": 1398, "happening": 1399, "nonitunes": 1400, "explosive": 1401, "workforce": 1402, "discusses": 1403, "alex": 1404, "zagkmerrick": 1405, "turned": 1406, "msbiancabisa": 1407, "seeing": 1408, "decem": 1409, "playlist": 1410, "quality": 1411, "robots": 1412, "across": 1413, "accident": 1414, "min": 1415, "plaintiffs": 1416, "margin": 1417, "promote": 1418, "tomorrow": 1419, "walgreens": 1420, "trend": 1421, "changed": 1422, "ridiculous": 1423, "hangs": 1424, "nearest": 1425, "total": 1426, "xiaomi": 1427, "momentum": 1428, "boylston": 1429, "foreign": 1430, "currency": 1431, "headwind": 1432, "fits": 1433, "backup": 1434, "battle": 1435, "development": 1436, "facing": 1437, "predictions": 1438, "family": 1439, "promoproduct": 1440, "carry": 1441, "brandable": 1442, "adapters": 1443, "headsaregoingtoroll": 1444, "fernandez": 1445, "ii": 1446, "defends": 1447, "protestors": 1448, "whats": 1449, "sentenced": 1450, "survive": 1451, "vitosfam": 1452, "cock": 1453, "porn": 1454, "xvideos": 1455, "sense": 1456, "value": 1457, "ill": 1458, "bro": 1459, "focus": 1460, "doesnt": 1461, "matches": 1462, "fires": 1463, "invest": 1464, "carlabarlacakes": 1465, "crappy": 1466, "frankthepilot": 1467, "tschwettman": 1468, "preview": 1469, "fitnesstracker": 1470, "quantifiedself": 1471, "bmo": 1472, "member": 1473, "fearing": 1474, "simply": 1475, "massive": 1476, "including": 1477, "horseshoebmore": 1478, "ck": 1479, "azakfeverafc": 1480, "bose": 1481, "hoarding": 1482, "police": 1483, "preferably": 1484, "shxt": 1485, "bionicbombshell": 1486, "earns": 1487, "lifetime": 1488, "facility": 1489, "prime": 1490, "minister": 1491, "fashionfocused": 1492, "pullback": 1493, "tablets": 1494, "expected": 1495, "tops": 1496, "engine": 1497, "analysts": 1498, "issued": 1499, "defend": 1500, "battles": 1501, "everywhere": 1502, "prob": 1503, "shuffle": 1504, "traders": 1505, "violation": 1506, "prosecute": 1507, "criminal": 1508, "chart": 1509, "badservice": 1510, "inspired": 1511, "ebay": 1512, "collection": 1513, "hoping": 1514, "ferguson": 1515, "restore": 1516, "needed": 1517, "macbookpro": 1518, "baba": 1519, "twtr": 1520, "fair": 1521, "account": 1522, "random": 1523, "paul": 1524, "blue": 1525, "created": 1526, "costs": 1527, "voicemail": 1528, "btw": 1529, "shareholders": 1530, "tree": 1531, "those": 1532, "faggots": 1533, "kinda": 1534, "tonight": 1535, "wars": 1536, "perhaps": 1537, "thankful": 1538, "lenovo": 1539, "emerge": 1540, "spring": 1541, "seconds": 1542, "sad": 1543, "economic": 1544, "events": 1545, "anybody": 1546, "letting": 1547, "replacement": 1548, "caused": 1549, "payments": 1550, "figured": 1551, "crests": 1552, "reiterates": 1553, "nightmare": 1554, "grave": 1555, "thats": 1556, "risk": 1557, "ebooks": 1558, "core": 1559, "student": 1560, "looked": 1561, "aaplfast": 1562, "recap": 1563, "leaders": 1564, "mary": 1565, "dollar": 1566, "vertical": 1567, "rejected": 1568, "notice": 1569, "rated": 1570, "lately": 1571, "switching": 1572, "ruined": 1573, "damnit": 1574, "reiterated": 1575, "either": 1576, "pain": 1577, "shortages": 1578, "immune": 1579, "complete": 1580, "seen": 1581, "rep": 1582, "sd": 1583, "deals": 1584, "aging": 1585, "mid": 1586, "suing": 1587, "putting": 1588, "comparison": 1589, "rotating": 1590, "applecare": 1591, "ibooks": 1592, "lawmakers": 1593, "positive": 1594, "hi": 1595, "testimony": 1596, "role": 1597, "weird": 1598, "locations": 1599, "perfect": 1600, "safe": 1601, "fixit": 1602, "travel": 1603, "fellow": 1604, "buddies": 1605, "arccosgolf": 1606, "ctnext": 1607, "stamfordicenter": 1608, "february": 1609, "underway": 1610, "picking": 1611, "russian": 1612, "state": 1613, "towards": 1614, "fixing": 1615, "swift": 1616, "crashes": 1617, "moving": 1618, "connectivity": 1619, "everyday": 1620, "cupertino": 1621, "maintain": 1622, "tacobell": 1623, "maker": 1624, "consider": 1625, "jengolbeck": 1626, "hot": 1627, "ecosystem": 1628, "theweldingroom": 1629, "buzz": 1630, "geniuses": 1631, "unit": 1632, "gosh": 1633, "clock": 1634, "super": 1635, "appleonly": 1636, "officially": 1637, "active": 1638, "rude": 1639, "anywhere": 1640, "feeling": 1641, "typo": 1642, "holding": 1643, "dick": 1644, "wasted": 1645, "somebody": 1646, "national": 1647, "commercials": 1648, "dropping": 1649, "pronto": 1650, "oppo": 1651, "happens": 1652, "disgusting": 1653, "jeff": 1654, "techcrunch": 1655, "sashametro": 1656, "process": 1657, "patented": 1658, "googlenexus": 1659, "technical": 1660, "outperform": 1661, "opportunity": 1662, "he": 1663, "r": 1664, "paypal": 1665, "walmart": 1666, "chase": 1667, "straight": 1668, "expert": 1669, "discuss": 1670, "limited": 1671, "join": 1672, "serious": 1673, "machine": 1674, "suite": 1675, "samsungtweets": 1676, "listen": 1677, "brain": 1678, "thru": 1679, "creates": 1680, "strategy": 1681, "nut": 1682, "kicks": 1683, "yr": 1684, "understand": 1685, "tape": 1686, "started": 1687, "idk": 1688, "cable": 1689, "dip": 1690, "boss": 1691, "wins": 1692, "waited": 1693, "gained": 1694, "significant": 1695, "germany": 1696, "gaming": 1697, "experts": 1698, "hand": 1699, "useful": 1700, "public": 1701, "symbol": 1702, "gauna": 1703, "test": 1704, "redxpower": 1705, "christmascount": 1706, "lightning": 1707, "site": 1708, "aapla": 1709, "posting": 1710, "needa": 1711, "snapchat": 1712, "private": 1713, "accused": 1714, "hardware": 1715, "cnn": 1716, "returns": 1717, "shoot": 1718, "ischool": 1719, "carriers": 1720, "exceptionally": 1721, "ikea": 1722, "channels": 1723, "copying": 1724, "pos": 1725, "ringtones": 1726, "admits": 1727, "petty": 1728, "audience": 1729, "googl": 1730, "per": 1731, "tho": 1732, "mariahreagan": 1733, "bout": 1734, "appeal": 1735, "removed": 1736, "several": 1737, "printer": 1738, "downgrade": 1739, "feedback": 1740, "glass": 1741, "keylogger": 1742, "provided": 1743, "prozacnation": 1744, "manufacturing": 1745, "holidays": 1746, "transit": 1747, "navigation": 1748, "within": 1749, "request": 1750, "mistake": 1751, "messed": 1752, "cnet": 1753, "svn": 1754, "safer": 1755, "conditions": 1756, "crushing": 1757, "businessweek": 1758, "potential": 1759, "techs": 1760, "yearold": 1761, "ecommerce": 1762, "square": 1763, "food": 1764, "wouldnt": 1765, "tap": 1766, "function": 1767, "programs": 1768, "phablets": 1769, "water": 1770, "unacceptable": 1771, "science": 1772, "starting": 1773, "nike": 1774, "roundup": 1775, "suppressing": 1776, "shut": 1777, "worried": 1778, "plane": 1779, "bet": 1780, "brent": 1781, "low": 1782, "pics": 1783, "guess": 1784, "developers": 1785, "attcares": 1786, "samsungmobile": 1787, "nearly": 1788, "four": 1789, "children": 1790, "community": 1791, "crowdsourcing": 1792, "blow": 1793, "beta": 1794, "error": 1795, "missionir": 1796, "campus": 1797, "pushed": 1798, "trader": 1799, "futures": 1800, "gpro": 1801, "buggy": 1802, "bueno": 1803, "aapliphone": 1804, "sue": 1805, "judge": 1806, "silicon": 1807, "dudes": 1808, "clone": 1809, "bc": 1810, "santa": 1811, "northamptonshire": 1812, "northampton": 1813, "thoughts": 1814, "slice": 1815, "dropbox": 1816, "argue": 1817, "vod": 1818, "urbannutcracker": 1819, "krumpers": 1820, "small": 1821, "forecast": 1822, "appygeek": 1823, "client": 1824, "kids": 1825, "director": 1826, "consensus": 1827, "units": 1828, "ending": 1829, "spencerescott": 1830, "blame": 1831, "dude": 1832, "aka": 1833, "marxculture": 1834, "permission": 1835, "killed": 1836, "smashed": 1837, "dannyrosin": 1838, "mfi": 1839, "newest": 1840, "occupy": 1841, "rebelutionaryz": 1842, "mrbeagleman": 1843, "shuts": 1844, "nofear": 1845, "icantbreathe": 1846, "hitting": 1847, "flagship": 1848, "spared": 1849, "verge": 1850, "aint": 1851, "blocked": 1852, "fucks": 1853, "ehsonakbary": 1854, "f": 1855, "grow": 1856, "couch": 1857, "wrap": 1858, "hoos": 1859, "whoabiebz": 1860, "lte": 1861, "roll": 1862, "absolutely": 1863, "watchs": 1864, "highpriced": 1865, "autocorrects": 1866, "approve": 1867, "ive": 1868, "panic": 1869, "availability": 1870, "george": 1871, "sydney": 1872, "dm": 1873, "confirmed": 1874, "favorite": 1875, "detects": 1876, "ordered": 1877, "steal": 1878, "being": 1879, "el": 1880, "ui": 1881, "capital": 1882, "professorf": 1883, "debuts": 1884, "impact": 1885, "component": 1886, "fakebananas": 1887, "unicom": 1888, "developing": 1889, "laser": 1890, "beams": 1891, "surroundings": 1892, "mastercard": 1893, "gwen": 1894, "stefani": 1895, "theywantvonnie": 1896, "fund": 1897, "managers": 1898, "govt": 1899, "clash": 1900, "neither": 1901, "returning": 1902, "violence": 1903, "fairoakstrader": 1904, "airmilesshops": 1905, "fing": 1906, "simplyyoursjoh": 1907, "scarfacesheed": 1908, "justrippy": 1909, "reminds": 1910, "mzhoov": 1911, "abe": 1912, "wowfactz": 1913, "dessytech": 1914, "primesense": 1915, "translate": 1916, "taus": 1917, "smartling": 1918, "williamsburg": 1919, "speakers": 1920, "luxury": 1921, "decodedfashion": 1922, "afrobugeisha": 1923, "aaplthe": 1924, "todays": 1925, "inquisition": 1926, "presentation": 1927, "wearable": 1928, "augustsmartlock": 1929, "screwed": 1930, "appointments": 1931, "suggested": 1932, "jh": 1933, "hines": 1934, "newly": 1935, "robconeybeer": 1936, "gawd": 1937, "chill": 1938, "ppl": 1939, "stickers": 1940, "leading": 1941, "cite": 1942, "trahall": 1943, "closing": 1944, "constitution": 1945, "txt": 1946, "admin": 1947, "seizure": 1948, "explains": 1949, "expensive": 1950, "force": 1951, "nsa": 1952, "then": 1953, "screenshot": 1954, "bruce": 1955, "espn": 1956, "educate": 1957, "claim": 1958, "fell": 1959, "ram": 1960, "whoknew": 1961, "capitalizes": 1962, "self": 1963, "pie": 1964, "tab": 1965, "stake": 1966, "aapljim": 1967, "cramers": 1968, "health": 1969, "percentage": 1970, "inside": 1971, "turkey": 1972, "campaign": 1973, "kit": 1974, "tumbles": 1975, "unusual": 1976, "chuck": 1977, "york": 1978, "joins": 1979, "chose": 1980, "added": 1981, "wrapped": 1982, "defective": 1983, "blackfriday": 1984, "designed": 1985, "bitches": 1986, "alone": 1987, "other": 1988, "boot": 1989, "burning": 1990, "secret": 1991, "p": 1992, "reinstall": 1993, "cisco": 1994, "guest": 1995, "decline": 1996, "algorithmic": 1997, "awarded": 1998, "displays": 1999, "cunts": 2000, "unusable": 2001, "reservations": 2002, "exact": 2003, "trackpad": 2004, "ended": 2005, "updating": 2006, "forcing": 2007, "toledo": 2008, "deer": 2009, "suppose": 2010, "passbook": 2011, "wasnt": 2012, "pacific": 2013, "tactics": 2014, "teach": 2015, "lesson": 2016, "matters": 2017, "fantastic": 2018, "quickly": 2019, "laurrynk": 2020, "fortunemagazine": 2021, "deserves": 2022, "chance": 2023, "largely": 2024, "ignored": 2025, "ratingsnetwork": 2026, "featuring": 2027, "minimal": 2028, "interface": 2029, "introductions": 2030, "billionaire": 2031, "vc": 2032, "overtake": 2033, "imagine": 2034, "microsofts": 2035, "props": 2036, "reviewing": 2037, "hoes": 2038, "mobilesecurity": 2039, "mcafee": 2040, "slump": 2041, "interestingly": 2042, "shortyawards": 2043, "elgato": 2044, "thunderbolt": 2045, "dock": 2046, "coolest": 2047, "delivery": 2048, "theyll": 2049, "bills": 2050, "pac": 2051, "crest": 2052, "deutsche": 2053, "struggles": 2054, "consumer": 2055, "dominate": 2056, "jopocop": 2057, "decision": 2058, "susceptible": 2059, "adware": 2060, "fighting": 2061, "allegations": 2062, "forums": 2063, "programmatic": 2064, "advertising": 2065, "companys": 2066, "winteknoc": 2067, "ping": 2068, "woah": 2069, "leapfrogs": 2070, "gorgeous": 2071, "lighting": 2072, "considering": 2073, "breaks": 2074, "california": 2075, "ohiloveariana": 2076, "damm": 2077, "sparkingari": 2078, "v": 2079, "merrill": 2080, "cycle": 2081, "faces": 2082, "backwards": 2083, "grab": 2084, "prefer": 2085, "gear": 2086, "vendor": 2087, "speaks": 2088, "ratings": 2089, "median": 2090, "upside": 2091, "yeardeath": 2092, "damaged": 2093, "plz": 2094, "drag": 2095, "qcom": 2096, "surprising": 2097, "designers": 2098, "split": 2099, "silver": 2100, "scary": 2101, "sounds": 2102, "although": 2103, "purse": 2104, "holds": 2105, "tommyhilfiger": 2106, "regards": 2107, "released": 2108, "catch": 2109, "speaking": 2110, "eat": 2111, "travlandleisure": 2112, "littlewordbites": 2113, "incredible": 2114, "rumour": 2115, "ppropp": 2116, "unfollow": 2117, "unlike": 2118, "foxnews": 2119, "bull": 2120, "flight": 2121, "far": 2122, "november": 2123, "alternative": 2124, "spell": 2125, "dreaming": 2126, "caps": 2127, "favourite": 2128, "promoting": 2129, "press": 2130, "fulltime": 2131, "results": 2132, "optionmonster": 2133, "imho": 2134, "bottom": 2135, "susan": 2136, "kare": 2137, "counts": 2138, "large": 2139, "especially": 2140, "angle": 2141, "utterly": 2142, "driver": 2143, "desperate": 2144, "changer": 2145, "enjoyed": 2146, "productred": 2147, "searched": 2148, "mobilephone": 2149, "war": 2150, "creation": 2151, "dismiss": 2152, "reflect": 2153, "agreed": 2154, "sets": 2155, "aaplone": 2156, "hang": 2157, "systems": 2158, "redownload": 2159, "threat": 2160, "ultra": 2161, "caseypieper": 2162, "heard": 2163, "hebrew": 2164, "shampeau": 2165, "appt": 2166, "themselves": 2167, "liver": 2168, "strengthen": 2169, "disappear": 2170, "dad": 2171, "goal": 2172, "jump": 2173, "least": 2174, "french": 2175, "seemed": 2176, "selection": 2177, "wmt": 2178, "aside": 2179, "entering": 2180, "throw": 2181, "cheeky": 2182, "characters": 2183, "chats": 2184, "instagram": 2185, "mochasucks": 2186, "saying": 2187, "brilliant": 2188, "earbuds": 2189, "common": 2190, "reorder": 2191, "tweets": 2192, "passwords": 2193, "malware": 2194, "accepts": 2195, "reduce": 2196, "principled": 2197, "truths": 2198, "fortune": 2199, "judgment": 2200, "charges": 2201, "english": 2202, "guts": 2203, "license": 2204, "homie": 2205, "lumia": 2206, "howardlake": 2207, "exclusive": 2208, "content": 2209, "globalfund": 2210, "merge": 2211, "appleids": 2212, "hide": 2213, "appleios": 2214, "rolled": 2215, "overtook": 2216, "forreal": 2217, "till": 2218, "connect": 2219, "gtat": 2220, "creditors": 2221, "williams": 2222, "finals": 2223, "iupdate": 2224, "rubbish": 2225, "click": 2226, "functioning": 2227, "cables": 2228, "mayhembcn": 2229, "duns": 2230, "ironic": 2231, "gmoneyizme": 2232, "accessories": 2233, "documents": 2234, "records": 2235, "soar": 2236, "lawyers": 2237, "history": 2238, "hackers": 2239, "enormous": 2240, "finance": 2241, "mix": 2242, "funding": 2243, "pink": 2244, "gray": 2245, "command": 2246, "disk": 2247, "debut": 2248, "capitalizing": 2249, "tip": 2250, "confusion": 2251, "europe": 2252, "upgraded": 2253, "transpartent": 2254, "resin": 2255, "infused": 2256, "composite": 2257, "structures": 2258, "hypebot": 2259, "helps": 2260, "outselling": 2261, "faulty": 2262, "handy": 2263, "bricked": 2264, "intc": 2265, "plan": 2266, "dreidel": 2267, "increased": 2268, "ugly": 2269, "keys": 2270, "leather": 2271, "feels": 2272, "partners": 2273, "foldable": 2274, "information": 2275, "spellcheck": 2276, "unified": 2277, "failing": 2278, "obviously": 2279, "customs": 2280, "compliance": 2281, "quite": 2282, "glad": 2283, "loved": 2284, "extra": 2285, "granted": 2286, "headxcreeps": 2287, "dingles": 2288, "clients": 2289, "refresh": 2290, "vaynermedia": 2291, "rocks": 2292, "vomiting": 2293, "burn": 2294, "britain": 2295, "rediculous": 2296, "hints": 2297, "oculus": 2298, "leap": 2299, "dominates": 2300, "whereiscooldude": 2301, "embrace": 2302, "shoutout": 2303, "failed": 2304, "trouble": 2305, "sending": 2306, "firm": 2307, "jimmy": 2308, "iovine": 2309, "flu": 2310, "kinsa": 2311, "dealing": 2312, "cnbc": 2313, "meant": 2314, "she": 2315, "language": 2316, "accent": 2317, "grand": 2318, "bedbathbeyond": 2319, "und": 2320, "badge": 2321, "sticker": 2322, "anf": 2323, "tjx": 2324, "tgt": 2325, "lyv": 2326, "aapldid": 2327, "carl": 2328, "icahn": 2329, "equity": 2330, "soul": 2331, "clobber": 2332, "androids": 2333, "underdog": 2334, "ca": 2335, "howto": 2336, "sdk": 2337, "africa": 2338, "infographic": 2339, "feed": 2340, "ego": 2341, "superman": 2342, "seeking": 2343, "alpha": 2344, "grey": 2345, "googledrive": 2346, "huluplus": 2347, "payed": 2348, "hackathon": 2349, "challenges": 2350, "front": 2351, "pr": 2352, "sextsatan": 2353, "replied": 2354, "livingthedream": 2355, "ari": 2356, "views": 2357, "hilarious": 2358, "fdacleared": 2359, "smartphoneconnected": 2360, "owners": 2361, "competing": 2362, "finder": 2363, "appear": 2364, "developments": 2365, "jetbrains": 2366, "becoming": 2367, "paulyarns": 2368, "beatssupport": 2369, "treating": 2370, "falls": 2371, "crashing": 2372, "impressed": 2373, "frustrating": 2374, "honestly": 2375, "comcast": 2376, "randomly": 2377, "wth": 2378, "commercial": 2379, "books": 2380, "aaplnew": 2381, "disappointed": 2382, "reverse": 2383, "application": 2384, "aaplalabama": 2385, "aaplbloomberg": 2386, "jamesloera": 2387, "silly": 2388, "missed": 2389, "utc": 2390, "lego": 2391, "once": 2392, "aaplupdate": 2393, "coredump": 2394, "leads": 2395, "anti": 2396, "includes": 2397, "lightening": 2398, "robust": 2399, "secure": 2400, "engadget": 2401, "union": 2402, "itouch": 2403, "benzene": 2404, "worldpanel": 2405, "lmfao": 2406, "insider": 2407, "namesake": 2408, "poised": 2409, "recordbreaking": 2410, "signed": 2411, "country": 2412, "source": 2413, "losses": 2414, "clawing": 2415, "loosing": 2416, "paper": 2417, "commute": 2418, "cooks": 2419, "perfectly": 2420, "summed": 2421, "limitations": 2422, "revealed": 2423, "sound": 2424, "glitches": 2425, "svnetwork": 2426, "sculley": 2427, "loves": 2428, "trigger": 2429, "spike": 2430, "revolution": 2431, "sketchy": 2432, "streethigh": 2433, "walk": 2434, "mbp": 2435, "everybody": 2436, "capitalization": 2437, "wild": 2438, "radbarakat": 2439, "wizkid": 2440, "nabbed": 2441, "backing": 2442, "hollywood": 2443, "bread": 2444, "supplychain": 2445, "m": 2446, "evernote": 2447, "warns": 2448, "makers": 2449, "productivity": 2450, "novelty": 2451, "finna": 2452, "def": 2453, "nheagy": 2454, "bourgeois": 2455, "arm": 2456, "leg": 2457, "invested": 2458, "waywardhem": 2459, "totally": 2460, "announces": 2461, "offers": 2462, "fights": 2463, "codeorg": 2464, "hosting": 2465, "executives": 2466, "average": 2467, "snatched": 2468, "damages": 2469, "adding": 2470, "eur": 2471, "workstold": 2472, "iti": 2473, "opportunities": 2474, "kantars": 2475, "maketh": 2476, "thee": 2477, "pesky": 2478, "appears": 2479, "peoples": 2480, "mass": 2481, "detailed": 2482, "honor": 2483, "rest": 2484, "sharing": 2485, "d": 2486, "shot": 2487, "taken": 2488, "classroom": 2489, "garageband": 2490, "faith": 2491, "onfoodableweekly": 2492, "episode": 2493, "habitburger": 2494, "pizza": 2495, "forty": 2496, "thousand": 2497, "special": 2498, "improved": 2499, "siripassbook": 2500, "equally": 2501, "both": 2502, "spy": 2503, "dawn": 2504, "pissing": 2505, "auditorium": 2506, "mths": 2507, "mobilepayments": 2508, "elubow": 2509, "yay": 2510, "helpful": 2511, "imessages": 2512, "yikes": 2513, "icons": 2514, "whos": 2515, "anyway": 2516, "torn": 2517, "disaster": 2518, "pre": 2519, "fitness": 2520, "surprise": 2521, "bending": 2522, "ugh": 2523, "sharksbeauty": 2524, "ongoing": 2525, "covered": 2526, "sotos": 2527, "worldresources": 2528, "leadership": 2529, "greenemarktplc": 2530, "tht": 2531, "impossible": 2532, "missing": 2533, "verizonwireless": 2534, "fragile": 2535, "shown": 2536, "pcs": 2537, "es": 2538, "esignal": 2539, "lihdior": 2540, "witchall": 2541, "facetimeing": 2542, "hangouts": 2543, "bigger": 2544, "kinder": 2545, "dougluberts": 2546, "fraud": 2547, "complicated": 2548, "received": 2549, "advanced": 2550, "solutions": 2551, "simplicity": 2552, "typing": 2553, "peeps": 2554, "saved": 2555, "cynthialanel": 2556, "balance": 2557, "cooolestnerd": 2558, "cos": 2559, "accessible": 2560, "pull": 2561, "virtual": 2562, "claus": 2563, "proper": 2564, "magicleap": 2565, "htc": 2566, "thehiitcoach": 2567, "pulled": 2568, "bullying": 2569, "weightsmate": 2570, "folders": 2571, "smartphones": 2572, "taiwan": 2573, "mystery": 2574, "knew": 2575, "amount": 2576, "tentatively": 2577, "approves": 2578, "reseller": 2579, "attention": 2580, "showing": 2581, "ovelhanegratv": 2582, "reserve": 2583, "adoptions": 2584, "eyes": 2585, "operations": 2586, "agreement": 2587, "seven": 2588, "hundred": 2589, "nineteen": 2590, "catchup": 2591, "collapse": 2592, "owner": 2593, "headaches": 2594, "dancing": 2595, "chat": 2596, "slams": 2597, "appleofficialll": 2598, "begins": 2599, "brussels": 2600, "ten": 2601, "buffett": 2602, "ian": 2603, "positions": 2604, "versions": 2605, "gifts": 2606, "noticed": 2607, "decades": 2608, "crystal": 2609, "baller": 2610, "rebirth": 2611, "insane": 2612, "driving": 2613, "li": 2614, "swansonbirds": 2615, "supporter": 2616, "saw": 2617, "hrhound": 2618, "mandogallegos": 2619, "actor": 2620, "sponsordeal": 2621, "caught": 2622, "hip": 2623, "twdancecenter": 2624, "enjoy": 2625, "krumping": 2626, "passion": 2627, "franchise": 2628, "flip": 2629, "ceos": 2630, "grace": 2631, "sdgln": 2632, "kensandiego": 2633, "bennyc": 2634, "jimwinsor": 2635, "mistercervantes": 2636, "ie": 2637, "java": 2638, "suicide": 2639, "ical": 2640, "entries": 2641, "related": 2642, "recurring": 2643, "struggle": 2644, "colors": 2645, "drone": 2646, "nokia": 2647, "presents": 2648, "flyover": 2649, "countries": 2650, "ones": 2651, "withdrawn": 2652, "freezes": 2653, "wut": 2654, "kthx": 2655, "dream": 2656, "shame": 2657, "into": 2658, "focuses": 2659, "unhappy": 2660, "daulfn": 2661, "yeh": 2662, "happily": 2663, "discount": 2664, "proud": 2665, "ruining": 2666, "buyers": 2667, "soo": 2668, "balls": 2669, "branding": 2670, "usage": 2671, "floridaatlantic": 2672, "rape": 2673, "valuation": 2674, "jacobrossi": 2675, "glitching": 2676, "brittbumgarner": 2677, "briannalengy": 2678, "deserve": 2679, "welcome": 2680, "ave": 2681, "mrushh": 2682, "anon": 2683, "decimated": 2684, "forth": 2685, "garbage": 2686, "fullcircleone": 2687, "thanx": 2688, "belt": 2689, "wear": 2690, "overnight": 2691, "whathappened": 2692, "wolfinpigscloth": 2693, "amanda": 2694, "urself": 2695, "queue": 2696, "mad": 2697, "ability": 2698, "seamlessly": 2699, "edit": 2700, "sendingapple": 2701, "whore": 2702, "sleep": 2703, "clearly": 2704, "smd": 2705, "appleproducts": 2706, "friends": 2707, "apparently": 2708, "cwb": 2709, "instasavvy": 2710, "edwardkb": 2711, "custom": 2712, "criticizes": 2713, "bloombergnews": 2714, "soldering": 2715, "swapping": 2716, "dilemma": 2717, "istores": 2718, "zuckerbergs": 2719, "frenemy": 2720, "dire": 2721, "mum": 2722, "overweight": 2723, "jumped": 2724, "soaring": 2725, "moderate": 2726, "chemixcalbieber": 2727, "johnlegere": 2728, "arndale": 2729, "earlier": 2730, "volume": 2731, "greedy": 2732, "pushing": 2733, "caller": 2734, "suggest": 2735, "ruin": 2736, "youre": 2737, "am": 2738, "tmobileiphone": 2739, "notcool": 2740, "color": 2741, "wozniaks": 2742, "airplay": 2743, "sec": 2744, "viticci": 2745, "glitch": 2746, "marxist": 2747, "outback": 2748, "projects": 2749, "annacochrane": 2750, "shouldnt": 2751, "compact": 2752, "quotes": 2753, "emilymahon": 2754, "bitch": 2755, "styles": 2756, "jimmypasha": 2757, "ima": 2758, "flipping": 2759, "explore": 2760, "dan": 2761, "nathan": 2762, "acted": 2763, "unfairly": 2764, "kedrosky": 2765, "rich": 2766, "it\u00e5": 2767, "covering": 2768, "birthday": 2769, "accessory": 2770, "fabricando": 2771, "banks": 2772, "downhill": 2773, "shelovesquez": 2774, "em": 2775, "ello": 2776, "lg": 2777, "archetype": 2778, "transaction": 2779, "removing": 2780, "tryna": 2781, "stephaniekmbc": 2782, "corporation": 2783, "before": 2784, "bonds": 2785, "blunderblock": 2786, "act": 2787, "allenyork": 2788, "blames": 2789, "excuse": 2790, "myths": 2791, "claire": 2792, "kass": 2793, "convert": 2794, "mpeg": 2795, "gettin": 2796, "slandered": 2797, "flipkart": 2798, "death": 2799, "mm": 2800, "shortage": 2801, "hurt": 2802, "suzanneboyd": 2803, "zoeejanoskians": 2804, "manager": 2805, "doh": 2806, "fixes": 2807, "tsla": 2808, "dell": 2809, "mcdonalds": 2810, "lovers": 2811, "predicted": 2812, "giants": 2813, "verify": 2814, "gmail": 2815, "rumored": 2816, "beefing": 2817, "expertise": 2818, "dana": 2819, "massie": 2820, "reminiscing": 2821, "lowcost": 2822, "geek": 2823, "alarms": 2824, "testers": 2825, "zdnet": 2826, "lets": 2827, "condoseniors": 2828, "prototype": 2829, "male": 2830, "potato": 2831, "smithandbeta": 2832, "clorox": 2833, "zemanta": 2834, "digidaydbs": 2835, "hated": 2836, "beware": 2837, "justpoetic": 2838, "investing": 2839, "misfit": 2840, "pioneer": 2841, "few": 2842, "spots": 2843, "wwclondons": 2844, "emmagazine": 2845, "aware": 2846, "shelves": 2847, "johnny": 2848, "sake": 2849, "party": 2850, "login": 2851, "winning": 2852, "thanking": 2853, "offensive": 2854, "trashcan": 2855, "discrimination": 2856, "aaron": 2857, "sorkins": 2858, "sux": 2859, "neil": 2860, "prettynumbers": 2861, "endangering": 2862, "lives": 2863, "manifestation": 2864, "pambesteder": 2865, "blacks": 2866, "actions": 2867, "sjado": 2868, "justinraimondo": 2869, "cocky": 2870, "fruit": 2871, "rule": 2872, "compete": 2873, "democrat": 2874, "animaitoes": 2875, "ifon": 2876, "siks": 2877, "jas": 2878, "rizalscandal": 2879, "robin": 2880, "lei": 2881, "tyniaaaa": 2882, "fml": 2883, "corp": 2884, "remind": 2885, "disqualified": 2886, "theres": 2887, "fashioned": 2888, "grandma": 2889, "mota": 2890, "killing": 2891, "um": 2892, "mango": 2893, "o": 2894, "training": 2895, "aaplpm": 2896, "fl": 2897, "sfbjeditor": 2898, "recruiting": 2899, "pros": 2900, "partnered": 2901, "sma": 2902, "threes": 2903, "menu": 2904, "nailing": 2905, "yokohama": 2906, "covers": 2907, "kinectstyle": 2908, "spacemapping": 2909, "stakeholderengagement": 2910, "thenorthface": 2911, "fourpawsuk": 2912, "greenpeace": 2913, "mathematically": 2914, "threats": 2915, "iamrayuko": 2916, "ecofantasy": 2917, "fin": 2918, "chews": 2919, "applesnob": 2920, "individualinvestor": 2921, "extended": 2922, "nobody": 2923, "expects": 2924, "spanish": 2925, "rocket": 2926, "gains": 2927, "margins": 2928, "aaplthis": 2929, "bestdesigned": 2930, "peterpham": 2931, "storepretty": 2932, "stable": 2933, "isync": 2934, "factual": 2935, "followers": 2936, "dummies": 2937, "warning": 2938, "unlocked": 2939, "xtra": 2940, "checkin": 2941, "upper": 2942, "westside": 2943, "widel": 2944, "edge": 2945, "efficiency": 2946, "amendment": 2947, "retort": 2948, "saxonidubom": 2949, "thanksthinking": 2950, "relevant": 2951, "checkitout": 2952, "counted": 2953, "judges": 2954, "separation": 2955, "powers": 2956, "furthermore": 2957, "provisions": 2958, "secrecy": 2959, "activities": 2960, "sedition": 2961, "gov": 2962, "timcooks": 2963, "affect": 2964, "paints": 2965, "abl": 2966, "precautions": 2967, "quailman": 2968, "bored": 2969, "wagnertim": 2970, "measly": 2971, "mis": 2972, "worldaidsday": 2973, "appsforred": 2974, "csrracing": 2975, "nocrop": 2976, "capturescream": 2977, "boy": 2978, "vpn": 2979, "ffs": 2980, "round": 2981, "wsjd": 2982, "briefly": 2983, "dove": 2984, "draining": 2985, "aaplmy": 2986, "horsemen": 2987, "gilead": 2988, "scie": 2989, "springsteen": 2990, "singing": 2991, "thatwasbad": 2992, "joke": 2993, "dept": 2994, "killer": 2995, "wilson": 2996, "pursuit": 2997, "tinfoiltricorn": 2998, "liquidity": 2999, "hft": 3000, "darkpools": 3001, "algorithms": 3002, "mails": 3003, "thisnyosemite": 3004, "stressing": 3005, "linkd": 3006, "choice": 3007, "shallow": 3008, "gfs": 3009, "jodispicer": 3010, "ibm": 3011, "dominating": 3012, "emphasis": 3013, "tha": 3014, "rand": 3015, "pigeonholed": 3016, "spreadsomejoy": 3017, "perfome": 3018, "launching": 3019, "mega": 3020, "biggerisbetter": 3021, "upped": 3022, "trims": 3023, "blacked": 3024, "opened": 3025, "hire": 3026, "baseballbridget": 3027, "tday": 3028, "appleemojissuck": 3029, "toricolelli": 3030, "participates": 3031, "played": 3032, "iamgambino": 3033, "gathering": 3034, "sigh": 3035, "duckthanks": 3036, "mikolajczak": 3037, "reuters": 3038, "brwnskinbeauti": 3039, "gbs": 3040, "crowd": 3041, "apart": 3042, "amandazuckerman": 3043, "forward": 3044, "humanity": 3045, "disgrace": 3046, "acid": 3047, "abuse": 3048, "instructed": 3049, "hazard": 3050, "rock": 3051, "aboveavalon": 3052, "repurchases": 3053, "benefited": 3054, "delayed": 3055, "raising": 3056, "chaptersindigo": 3057, "miles": 3058, "sale": 3059, "freemoney": 3060, "centsability": 3061, "ronald": 3062, "wayne": 3063, "drawing": 3064, "isaac": 3065, "newton": 3066, "slack": 3067, "boys": 3068, "mother": 3069, "logos": 3070, "print": 3071, "ketosis": 3072, "dremacsamillion": 3073, "whosflyy": 3074, "gams": 3075, "bellabong": 3076, "disney": 3077, "itunesmovies": 3078, "lame": 3079, "starwars": 3080, "malleable": 3081, "metal": 3082, "shell": 3083, "noticedsomecurve": 3084, "doe": 3085, "rendition": 3086, "requirement": 3087, "platforms": 3088, "vault": 3089, "camp": 3090, "tapatio": 3091, "tesco": 3092, "relaunch": 3093, "ate": 3094, "edits": 3095, "amateurs": 3096, "iwantjobsback": 3097, "horrendous": 3098, "brokenchargerprobs": 3099, "houseofcards": 3100, "wks": 3101, "legs": 3102, "sorted": 3103, "motivation": 3104, "hammerarcade": 3105, "rood": 3106, "quentinnield": 3107, "salut": 3108, "kcdentons": 3109, "smartphonetablet": 3110, "automation": 3111, "hub": 3112, "protocol": 3113, "shortcutlabs": 3114, "flic": 3115, "outlook": 3116, "heavy": 3117, "remuuusss": 3118, "politics": 3119, "anymr": 3120, "rapid": 3121, "wiped": 3122, "automatic": 3123, "trades": 3124, "augmented": 3125, "transparent": 3126, "synching": 3127, "angusdick": 3128, "maxscottslade": 3129, "screw": 3130, "holdings": 3131, "size": 3132, "mockup": 3133, "ohio": 3134, "negative": 3135, "bbc": 3136, "ringer": 3137, "refused": 3138, "alibabatalk": 3139, "race": 3140, "microsave": 3141, "fintechhub": 3142, "huntin": 3143, "friendz": 3144, "neimanmarcus": 3145, "utilizing": 3146, "ibeacons": 3147, "engagement": 3148, "personalization": 3149, "hidden": 3150, "presenting": 3151, "dep": 3152, "jamfsoftware": 3153, "herewegolakers": 3154, "aaplpacific": 3155, "applelawsuit": 3156, "depends": 3157, "backbeat": 3158, "competitive": 3159, "unfair": 3160, "yk": 3161, "earphone": 3162, "mcmillanstu": 3163, "telco": 3164, "ecomchat": 3165, "gma": 3166, "jurors": 3167, "fr": 3168, "touchwood": 3169, "esp": 3170, "zach": 3171, "sorting": 3172, "efficiently": 3173, "losskitty": 3174, "thisdueemarco": 3175, "drama": 3176, "dual": 3177, "equal": 3178, "minorities": 3179, "disadvantage": 3180, "equalizer": 3181, "realmac": 3182, "typed": 3183, "markdown": 3184, "writing": 3185, "mazeonpace": 3186, "competes": 3187, "energy": 3188, "ebb": 3189, "flow": 3190, "exposed": 3191, "attempts": 3192, "hail": 3193, "jim": 3194, "breyer": 3195, "mhealthsummit": 3196, "mobiquitys": 3197, "panelist": 3198, "remotely": 3199, "itc": 3200, "metadata": 3201, "resubmission": 3202, "newer": 3203, "transferring": 3204, "georgetown": 3205, "refurbd": 3206, "refurbs": 3207, "farfetched": 3208, "fundamental": 3209, "capitolization": 3210, "alleged": 3211, "misleading": 3212, "labeling": 3213, "drewbsaunders": 3214, "confusing": 3215, "resolution": 3216, "epaper": 3217, "fes": 3218, "announce": 3219, "stays": 3220, "gregsherry": 3221, "successes": 3222, "southwestair": 3223, "examples": 3224, "halve": 3225, "affluent": 3226, "outspend": 3227, "numbers": 3228, "meaning": 3229, "soviet": 3230, "jokes": 3231, "produce": 3232, "tank": 3233, "seeks": 3234, "kalashnikov": 3235, "damned": 3236, "ide": 3237, "khaleel": 3238, "compuserve": 3239, "btc": 3240, "cautious": 3241, "crus": 3242, "invented": 3243, "peanutbuttersandwich": 3244, "aaplcanaccord": 3245, "temperature": 3246, "spiking": 3247, "terrorist": 3248, "attack": 3249, "zerohedge": 3250, "baitandswitched": 3251, "paying": 3252, "upgd": 3253, "upcoming": 3254, "futuristic": 3255, "plummet": 3256, "crucial": 3257, "dazzle": 3258, "simulators": 3259, "monopoly": 3260, "worries": 3261, "dazzler": 3262, "suckers": 3263, "archimage": 3264, "bunch": 3265, "tweeting": 3266, "iad": 3267, "isp": 3268, "peering": 3269, "directly": 3270, "response": 3271, "cashback": 3272, "grandcentralstation": 3273, "tricks": 3274, "avoid": 3275, "dropproof": 3276, "physics": 3277, "antigravity": 3278, "macrumors": 3279, "kellyhodgkins": 3280, "youve": 3281, "unstanningzarry": 3282, "testifies": 3283, "ikr": 3284, "tobc": 3285, "grades": 3286, "aaplandroid": 3287, "bllshit": 3288, "mostly": 3289, "billi": 3290, "compatibility": 3291, "aperture": 3292, "ggwpapple": 3293, "applecom": 3294, "lowfi": 3295, "tips": 3296, "dispute": 3297, "lookalike": 3298, "truth": 3299, "resolve": 3300, "arguably": 3301, "themancbear": 3302, "craig": 3303, "eu": 3304, "pity": 3305, "soooo": 3306, "passcodes": 3307, "synchronized": 3308, "elmetifi": 3309, "strikes": 3310, "somewhat": 3311, "supplier": 3312, "skyworks": 3313, "swks": 3314, "brcm": 3315, "mu": 3316, "vti": 3317, "designs": 3318, "visuals": 3319, "idsa": 3320, "susankare": 3321, "quietly": 3322, "protective": 3323, "ncrcorporation": 3324, "merchants": 3325, "bitcoin": 3326, "banking": 3327, "msnarcissistic": 3328, "samjam": 3329, "agreedhave": 3330, "winter": 3331, "microphone": 3332, "spacious": 3333, "storeystl": 3334, "method": 3335, "casts": 3336, "conspirator": 3337, "sjspencee": 3338, "kindly": 3339, "format": 3340, "listeners": 3341, "bb": 3342, "assure": 3343, "fitbit": 3344, "chargehr": 3345, "latkes": 3346, "chipping": 3347, "pin": 3348, "pleased": 3349, "tweep": 3350, "tbcoach": 3351, "practitioner": 3352, "wyokari": 3353, "irl": 3354, "uberfacts": 3355, "midnight": 3356, "socialcleanuptuesday": 3357, "charter": 3358, "antidrama": 3359, "tomadler": 3360, "explicitly": 3361, "imply": 3362, "sometimesboring": 3363, "kirkby": 3364, "multiplier": 3365, "effect": 3366, "employs": 3367, "creating": 3368, "indirect": 3369, "trailer": 3370, "finish": 3371, "suffer": 3372, "personal": 3373, "unseats": 3374, "classrooms": 3375, "macmall": 3376, "united": 3377, "goods": 3378, "custserv": 3379, "bubblews": 3380, "misspelled": 3381, "becom": 3382, "itsaventum": 3383, "theaphotic": 3384, "interest": 3385, "significantly": 3386, "worry": 3387, "bentkraus": 3388, "macmail": 3389, "lawmaker": 3390, "stealing": 3391, "jonfavreau": 3392, "chef": 3393, "original": 3394, "executed": 3395, "reminded": 3396, "nandos": 3397, "puts": 3398, "six": 3399, "restaurant": 3400, "gg": 3401, "wells": 3402, "fargo": 3403, "advertisement": 3404, "effects": 3405, "foxbustv": 3406, "taco": 3407, "mostdesired": 3408, "strategic": 3409, "steps": 3410, "mobility": 3411, "pilothouse": 3412, "loyal": 3413, "cnbcclosingbell": 3414, "boldstatement": 3415, "newsmintapp": 3416, "slowdown": 3417, "sonyuk": 3418, "courtesy": 3419, "reply": 3420, "stayed": 3421, "testify": 3422, "fastcodesign": 3423, "ualdrivr": 3424, "announcement": 3425, "supporters": 3426, "criticized": 3427, "declining": 3428, "sourcekit": 3429, "niggaz": 3430, "single": 3431, "freefall": 3432, "lap": 3433, "ibmbizanalytics": 3434, "mobilefirst": 3435, "collaboration": 3436, "doclens": 3437, "handson": 3438, "mophie": 3439, "powerstation": 3440, "external": 3441, "businessinsider": 3442, "bayarea": 3443, "techies": 3444, "petitioning": 3445, "raptors": 3446, "claw": 3447, "infringe": 3448, "copied": 3449, "mrstiffanyanne": 3450, "awareness": 3451, "fuckaids": 3452, "donate": 3453, "aaplis": 3454, "widgets": 3455, "drafts": 3456, "himself": 3457, "above": 3458, "griffinnw": 3459, "accurately": 3460, "introducing": 3461, "iglove": 3462, "singlehandedly": 3463, "operate": 3464, "timetable": 3465, "chasing": 3466, "customerexperience": 3467, "lawyerpeteschulte": 3468, "policebodycameras": 3469, "televis": 3470, "mozilla": 3471, "loose": 3472, "wheres": 3473, "lava": 3474, "lamp": 3475, "provide": 3476, "visibility": 3477, "dumbass": 3478, "cha": 3479, "devil": 3480, "aaplafterhours": 3481, "bob": 3482, "evans": 3483, "farms": 3484, "coffee": 3485, "iirwanks": 3486, "ick": 3487, "ruse": 3488, "muted": 3489, "groupchat": 3490, "uhm": 3491, "iambrozie": 3492, "edward": 3493, "scissorhands": 3494, "length": 3495, "fingers": 3496, "honda": 3497, "fit": 3498, "appledeeap": 3499, "signs": 3500, "musics": 3501, "arent": 3502, "christ": 3503, "problematic": 3504, "ends": 3505, "initiative": 3506, "midst": 3507, "investigation": 3508, "womenofhistory": 3509, "choosewisely": 3510, "itunessupport": 3511, "anneohirsch": 3512, "uh": 3513, "fun": 3514, "television": 3515, "creatively": 3516, "stifled": 3517, "abrick": 3518, "stuck": 3519, "raul": 3520, "art": 3521, "supplies": 3522, "sarahinthiscity": 3523, "lynch": 3524, "bil": 3525, "backlog": 3526, "inbox": 3527, "hunters": 3528, "functional": 3529, "whimsical": 3530, "alibaba": 3531, "car": 3532, "kaitlynpearle": 3533, "high": 3534, "locked": 3535, "ape": 3536, "beginning": 3537, "cancel": 3538, "applesuport": 3539, "wrongdoing": 3540, "liberals": 3541, "greed": 3542, "nifty": 3543, "dcferguson": 3544, "magically": 3545, "hotel": 3546, "speculations": 3547, "indicate": 3548, "sept": 3549, "royally": 3550, "dice": 3551, "description": 3552, "nintendo": 3553, "sega": 3554, "theyd": 3555, "emulation": 3556, "contentportfolios": 3557, "recognition": 3558, "spotlight": 3559, "selecting": 3560, "input": 3561, "bea": 3562, "benedictevans": 3563, "dangainor": 3564, "shutterfly": 3565, "sfly": 3566, "banned": 3567, "tribute": 3568, "statue": 3569, "cultofmac": 3570, "tripping": 3571, "responsible": 3572, "mkschuster": 3573, "taptotweet": 3574, "peterhewer": 3575, "claimed": 3576, "ouch": 3577, "penis": 3578, "implying": 3579, "eggplant": 3580, "puke": 3581, "roamingwithruth": 3582, "breyythatsmee": 3583, "widely": 3584, "payola": 3585, "scheme": 3586, "reached": 3587, "mozillas": 3588, "opensourceagent": 3589, "opensource": 3590, "withstand": 3591, "tom": 3592, "capitalized": 3593, "tommy": 3594, "autocorrectprobs": 3595, "qualify": 3596, "geniusbar": 3597, "unneccessary": 3598, "idr": 3599, "afterhours": 3600, "bobe": 3601, "headlines": 3602, "agrees": 3603, "blowing": 3604, "dickc": 3605, "logjn": 3606, "auth": 3607, "pmarca": 3608, "yungbaaz": 3609, "cunt": 3610, "barackobama": 3611, "donations": 3612, "debt": 3613, "oprah": 3614, "realdonaldtrump": 3615, "warrenbuffett": 3616, "punch": 3617, "makeitstop": 3618, "ahhhhhhh": 3619, "maverick": 3620, "wave": 3621, "surfsupsamsung": 3622, "gun": 3623, "awdl": 3624, "goodmore": 3625, "givingtuesday": 3626, "stonersports": 3627, "flashvsarrow": 3628, "migreyes": 3629, "dhh": 3630, "conquer": 3631, "furstrated": 3632, "overheat": 3633, "ryansconcepts": 3634, "iphoneweak": 3635, "fcp": 3636, "nicely": 3637, "editing": 3638, "dyslexic": 3639, "rejoice": 3640, "realised": 3641, "fked": 3642, "inevitability": 3643, "stuffsg": 3644, "fyi": 3645, "aapldo": 3646, "confuse": 3647, "decreasing": 3648, "weighting": 3649, "pyalot": 3650, "diag": 3651, "ticket": 3652, "default": 3653, "festivals": 3654, "repairs": 3655, "incensing": 3656, "irrelevant": 3657, "playin": 3658, "dawned": 3659, "frayed": 3660, "req": 3661, "supports": 3662, "payout": 3663, "swoon": 3664, "plunge": 3665, "switchtolumia": 3666, "halts": 3667, "seizes": 3668, "epro": 3669, "comscore": 3670, "alarmthatdidntgooff": 3671, "disrespectful": 3672, "accounted": 3673, "crackedscreens": 3674, "interpreted": 3675, "annoyingly": 3676, "crushes": 3677, "caderageous": 3678, "diy": 3679, "bulky": 3680, "index": 3681, "experiment": 3682, "observation": 3683, "tested": 3684, "dma": 3685, "safest": 3686, "timelike": 3687, "bay": 3688, "area": 3689, "courtroom": 3690, "replay": 3691, "nytimes": 3692, "smear": 3693, "competitors": 3694, "liking": 3695, "disconnected": 3696, "scrap": 3697, "snarky": 3698, "tol": 3699, "paek": 3700, "housingits": 3701, "retaileraapl": 3702, "consumerfeed": 3703, "curiousearly": 3704, "squeeze": 3705, "fairly": 3706, "butterfingers": 3707, "applinsider": 3708, "partner": 3709, "stripe": 3710, "boots": 3711, "stripes": 3712, "shutting": 3713, "repeatinghelp": 3714, "booting": 3715, "darnit": 3716, "agai": 3717, "spending": 3718, "creative": 3719, "authority": 3720, "senator": 3721, "orrin": 3722, "hatch": 3723, "washington": 3724, "dc": 3725, "trip": 3726, "previously": 3727, "nvram": 3728, "sscomposer": 3729, "presses": 3730, "lanes": 3731, "briannaurie": 3732, "bump": 3733, "butt": 3734, "extension": 3735, "jokigenki": 3736, "canada": 3737, "lowkey": 3738, "express": 3739, "irritating": 3740, "outta": 3741, "disgruntled": 3742, "tks": 3743, "deterioates": 3744, "irapecouches": 3745, "sydneya": 3746, "lanacarine": 3747, "peter": 3748, "carstensen": 3749, "wisconsinlaw": 3750, "harvard": 3751, "wdtuts": 3752, "baxleyglass": 3753, "belongs": 3754, "ang": 3755, "adobe": 3756, "employeediscount": 3757, "surpasses": 3758, "kirkyuhnke": 3759, "aaplgoogle": 3760, "applefeedsfoxbusinesscomrfoxbusinessvideo": 3761, "recalled": 3762, "reflex": 3763, "deviceslearn": 3764, "mobiledose": 3765, "sethlouey": 3766, "trishs": 3767, "rotten": 3768, "limit": 3769, "qualcomm": 3770, "licensing": 3771, "fees": 3772, "hpq": 3773, "investigates": 3774, "programme": 3775, "cave": 3776, "engines": 3777, "openup": 3778, "applersscnncomrrssmoneylatestindexhtml": 3779, "invitation": 3780, "direct": 3781, "speed": 3782, "timcooktherealjonyive": 3783, "grabs": 3784, "melted": 3785, "mercedes": 3786, "benz": 3787, "tan": 3788, "beige": 3789, "mercedesbenz": 3790, "origins": 3791, "ggheorghiu": 3792, "mhmcquistons": 3793, "approach": 3794, "heavyhitting": 3795, "digitalhealth": 3796, "mobihealthnews": 3797, "providesell": 3798, "uhreading": 3799, "muhfugs": 3800, "zero": 3801, "complains": 3802, "kenneth": 3803, "montht": 3804, "hank": 3805, "trickle": 3806, "vincekuraitis": 3807, "braid": 3808, "pegraton": 3809, "booted": 3810, "discreet": 3811, "drycomposites": 3812, "suppress": 3813, "greatness": 3814, "morestop": 3815, "turdbolt": 3816, "eschewed": 3817, "esata": 3818, "inception": 3819, "los": 3820, "angeles": 3821, "suspends": 3822, "purchases": 3823, "raid": 3824, "recourse": 3825, "jmhattem": 3826, "lefts": 3827, "multitalented": 3828, "supersuccessful": 3829, "gays": 3830, "agenda": 3831, "matthew": 3832, "neville": 3833, "shifting": 3834, "forum": 3835, "leiahemilyy": 3836, "cafe": 3837, "shady": 3838, "groove": 3839, "techie": 3840, "frequent": 3841, "yeay": 3842, "pricetarget": 3843, "rises": 3844, "sorti": 3845, "wi": 3846, "ipadmini": 3847, "discussion": 3848, "prcelines": 3849, "hblodget": 3850, "turnaround": 3851, "oddly": 3852, "uplifting": 3853, "anyhow": 3854, "vid": 3855, "downgrades": 3856, "shagale": 3857, "whyd": 3858, "dispensers": 3859, "staplers": 3860, "centermass": 3861, "bonerforesst": 3862, "preventing": 3863, "pegatron": 3864, "earpiece": 3865, "town": 3866, "crescentgate": 3867, "admire": 3868, "mainly": 3869, "culture": 3870, "karen": 3871, "abillaut": 3872, "daytona": 3873, "julian": 3874, "robertson": 3875, "bullish": 3876, "latestinnovation": 3877, "whyamihavingtomakegeniusbarappointmentsalready": 3878, "hrs": 3879, "syncing": 3880, "accessability": 3881, "horific": 3882, "vr": 3883, "interfaces": 3884, "pains": 3885, "ipster": 3886, "wrist": 3887, "bestbuysupport": 3888, "overrided": 3889, "helpif": 3890, "sapphire": 3891, "shiny": 3892, "goddamn": 3893, "justsayin": 3894, "evilhag": 3895, "chayiltrading": 3896, "chartoftheday": 3897, "coltonobrian": 3898, "activation": 3899, "airdrop": 3900, "kills": 3901, "hole": 3902, "continuity": 3903, "developed": 3904, "ielisten": 3905, "amazingly": 3906, "gate": 3907, "srsly": 3908, "infiniteflight": 3909, "flyingdevstudio": 3910, "hands": 3911, "nfc": 3912, "assume": 3913, "rage": 3914, "known": 3915, "healthy": 3916, "understands": 3917, "lausd": 3918, "pearson": 3919, "leadershipfederal": 3920, "jury": 3921, "subpoenaed": 3922, "winner": 3923, "lausds": 3924, "scandal": 3925, "accessorymaynotbesupported": 3926, "dax": 3927, "tore": 3928, "canal": 3929, "knockoff": 3930, "cmonman": 3931, "infringing": 3932, "ancient": 3933, "pager": 3934, "sne": 3935, "fnd": 3936, "netbot": 3937, "giantsized": 3938, "heynyla": 3939, "sampepper": 3940, "nature": 3941, "controller": 3942, "dvd": 3943, "pdbogen": 3944, "convinced": 3945, "cio": 3946, "requires": 3947, "carpages": 3948, "import": 3949, "objectivec": 3950, "bridging": 3951, "header": 3952, "apigee": 3953, "limfestival": 3954, "lolol": 3955, "varied": 3956, "apols": 3957, "shockingly": 3958, "desktop": 3959, "technicalchart": 3960, "ust": 3961, "sayin": 3962, "remotesupport": 3963, "techlife": 3964, "forbestech": 3965, "investmentbut": 3966, "kys": 3967, "hshdsh": 3968, "borrowed": 3969, "stole": 3970, "futter": 3971, "mein": 3972, "tough": 3973, "computing": 3974, "communication": 3975, "melasdesign": 3976, "yeari": 3977, "stream": 3978, "carefully": 3979, "mediapost": 3980, "dmcgroarty": 3981, "metalbanker": 3982, "rareearths": 3983, "aapldexcom": 3984, "terry": 3985, "gregg": 3986, "ytd": 3987, "pathetic": 3988, "techy": 3989, "schoology": 3990, "chromebook": 3991, "poli": 3992, "sci": 3993, "founda": 3994, "madrid": 3995, "dontask": 3996, "newtoy": 3997, "fcbliam": 3998, "asshole": 3999, "location": 4000, "yalls": 4001, "complain": 4002, "gernieb": 4003, "eggfreezing": 4004, "female": 4005, "engineers": 4006, "catalog": 4007, "bookbook": 4008, "baby": 4009, "airquotes": 4010, "ports": 4011, "toycomputer": 4012, "zoebread": 4013, "dps": 4014, "welove": 4015, "aaple": 4016, "ohai": 4017, "boycott": 4018, "forever": 4019, "devils": 4020, "hung": 4021, "iphoneissues": 4022, "unlvgirl": 4023, "luv": 4024, "resources": 4025, "condescending": 4026, "captive": 4027, "maddening": 4028, "reappearing": 4029, "naugtae": 4030, "aw": 4031, "monarchywpb": 4032, "ride": 4033, "rhyot": 4034, "boommovement": 4035, "donates": 4036, "pennsylvania": 4037, "runs": 4038, "worldlook": 4039, "ssnlf": 4040, "syncdefaultsd": 4041, "preference": 4042, "preferences": 4043, "cutandpaste": 4044, "library": 4045, "completed": 4046, "uploadedhow": 4047, "andrewdmilam": 4048, "hooked": 4049, "greeted": 4050, "cheaper": 4051, "cuz": 4052, "rn": 4053, "lose": 4054, "degrees": 4055, "weather": 4056, "knowledge": 4057, "pwilke": 4058, "ughhhh": 4059, "farreaching": 4060, "demonstrate": 4061, "c": 4062, "representative": 4063, "shake": 4064, "clicking": 4065, "messup": 4066, "otter": 4067, "gravitydefying": 4068, "shuevey": 4069, "nintype": 4070, "valuewalk": 4071, "patrickpaltrow": 4072, "demographic": 4073, "synonyms": 4074, "attached": 4075, "dictionary": 4076, "incompetence": 4077, "weewiii": 4078, "makeover": 4079, "gcipad": 4080, "piss": 4081, "lecture": 4082, "fkn": 4083, "tuition": 4084, "artwork": 4085, "taylor": 4086, "brycehendersonn": 4087, "gamergate": 4088, "ign": 4089, "machinima": 4090, "gameinformer": 4091, "tbjapodcast": 4092, "laurva": 4093, "weight": 4094, "trim": 4095, "gelato": 4096, "assistant": 4097, "agiletortoise": 4098, "inconsistent": 4099, "plausible": 4100, "deniability": 4101, "greg": 4102, "draftsapp": 4103, "driven": 4104, "gorilla": 4105, "ti": 4106, "attachment": 4107, "walkleys": 4108, "abciview": 4109, "frankellyabc": 4110, "definition": 4111, "warped": 4112, "rise": 4113, "grqvity": 4114, "reorient": 4115, "saphire": 4116, "producing": 4117, "tangle": 4118, "predictive": 4119, "programing": 4120, "portland": 4121, "rollout": 4122, "struggling": 4123, "rally": 4124, "thnx": 4125, "fags": 4126, "reutersbiz": 4127, "mr": 4128, "smug": 4129, "err": 4130, "crapcable": 4131, "l": 4132, "chocolate": 4133, "guard": 4134, "faqs": 4135, "dece": 4136, "harveystahoe": 4137, "edvones": 4138, "sir": 4139, "wall": 4140, "themappleporkies": 4141, "dey": 4142, "smiiingbarakat": 4143, "slackin": 4144, "issuers": 4145, "ln": 4146, "uw": 4147, "greatcompany": 4148, "workin": 4149, "soslow": 4150, "cynic": 4151, "hike": 4152, "walked": 4153, "traded": 4154, "bent": 4155, "torrentapple": 4156, "frozen": 4157, "wasteland": 4158, "arid": 4159, "desert": 4160, "mariabartiromo": 4161, "aaaron": 4162, "insanely": 4163, "adroll": 4164, "iads": 4165, "isheep": 4166, "central": 4167, "onthisdayindigital": 4168, "searching": 4169, "bgpublic": 4170, "synced": 4171, "elsewhere": 4172, "greatservice": 4173, "sylvester": 4174, "elaborate": 4175, "applications": 4176, "refusal": 4177, "tm": 4178, "upheld": 4179, "australian": 4180, "ipaustralia": 4181, "primary": 4182, "initially": 4183, "hesitant": 4184, "aaplafter": 4185, "afternoon": 4186, "tea": 4187, "touchpoint": 4188, "rewards": 4189, "thisiswhypeoplegetmurdered": 4190, "messaging": 4191, "webpage": 4192, "ichat": 4193, "undestand": 4194, "syfnews": 4195, "creditcare": 4196, "prodhad": 4197, "whatyearisit": 4198, "poorcustomerservice": 4199, "inderstweet": 4200, "soared": 4201, "androidauto": 4202, "salt": 4203, "shaker": 4204, "upi": 4205, "purpose": 4206, "whatsapp": 4207, "briantong": 4208, "aapljohn": 4209, "pans": 4210, "witha": 4211, "rate": 4212, "aaplbeacons": 4213, "flips": 4214, "everytime": 4215, "receipt": 4216, "emailed": 4217, "miniheartattack": 4218, "lovingit": 4219, "shorting": 4220, "admires": 4221, "mapple": 4222, "avago": 4223, "hint": 4224, "avgo": 4225, "edn": 4226, "domt": 4227, "peroquemorro": 4228, "grabbing": 4229, "kick": 4230, "moldy": 4231, "disgusted": 4232, "falseadvertising": 4233, "nono": 4234, "caviar": 4235, "jgreerthaatruth": 4236, "unlikely": 4237, "suggests": 4238, "jugatti": 4239, "ay": 4240, "cuhz": 4241, "uphave": 4242, "outro": 4243, "julie": 4244, "anderson": 4245, "informationweek": 4246, "bday": 4247, "econsultancy": 4248, "journey": 4249, "checkout": 4250, "jawn": 4251, "scooped": 4252, "ice": 4253, "cream": 4254, "arranging": 4255, "wherever": 4256, "couple": 4257, "shittychargers": 4258, "shucks": 4259, "spotify": 4260, "promotion": 4261, "subscription": 4262, "suburban": 4263, "jmroubinek": 4264, "firstever": 4265, "pcaudiolabs": 4266, "emanon": 4267, "execs": 4268, "kid": 4269, "quirk": 4270, "stuffit": 4271, "reappears": 4272, "trapping": 4273, "trademarks": 4274, "annual": 4275, "jobspring": 4276, "technews": 4277, "lands": 4278, "aaplshould": 4279, "selfie": 4280, "switched": 4281, "htcone": 4282, "slawfr": 4283, "cs": 4284, "airport": 4285, "boarding": 4286, "scanner": 4287, "plusa": 4288, "achievement": 4289, "reboots": 4290, "blackdollarsmatter": 4291, "letter": 4292, "lgbtq": 4293, "marriage": 4294, "equalitycivil": 4295, "rights": 4296, "alharding": 4297, "huffpostgay": 4298, "unique": 4299, "crescentgategate": 4300, "daninicolexo": 4301, "whatchoo": 4302, "meeeeean": 4303, "goreella": 4304, "glazz": 4305, "giirrl": 4306, "daaam": 4307, "aino": 4308, "monkee": 4309, "bdsm": 4310, "themed": 4311, "todaycharger": 4312, "queryselectorall": 4313, "jquery": 4314, "tests": 4315, "unbreakable": 4316, "investorplace": 4317, "overarching": 4318, "conspiracy": 4319, "disneypixar": 4320, "worker": 4321, "compensation": 4322, "ooh": 4323, "meeee": 4324, "pleaseeeeeeeeee": 4325, "protozsay": 4326, "keeeppppp": 4327, "flyinggggg": 4328, "lmaoo": 4329, "jksontheradio": 4330, "legit": 4331, "pic": 4332, "hahha": 4333, "flop": 4334, "babyyyss": 4335, "hug": 4336, "beautiful": 4337, "moved": 4338, "naming": 4339, "verenasu": 4340, "dpan": 4341, "aaplsamsung": 4342, "poach": 4343, "takethis": 4344, "weeek": 4345, "awsome": 4346, "coloradolovesyou": 4347, "along": 4348, "cup": 4349, "appleaddict": 4350, "paris": 4351, "rihanna": 4352, "jeremyenigk": 4353, "kesharose": 4354, "layitonme": 4355, "picture": 4356, "famous": 4357, "policies": 4358, "ciosynergy": 4359, "ciolosangeles": 4360, "tvs": 4361, "aternityinc": 4362, "zensar": 4363, "casual": 4364, "republicanpriv": 4365, "guardian": 4366, "ww": 4367, "minuum": 4368, "treat": 4369, "ir": 4370, "remote": 4371, "tag": 4372, "cop": 4373, "cig": 4374, "senseless": 4375, "train": 4376, "pair": 4377, "usaudiotechnica": 4378, "theiphonews": 4379, "busted": 4380, "sites": 4381, "throwbackpop": 4382, "cd": 4383, "stilllawsuit": 4384, "onehour": 4385, "introduction": 4386, "basics": 4387, "puzzle": 4388, "light": 4389, "fck": 4390, "dash": 4391, "braintree": 4392, "paywithdash": 4393, "intels": 4394, "carrier": 4395, "drink": 4396, "verified": 4397, "finished": 4398, "dissertating": 4399, "seeds": 4400, "certainly": 4401, "tabletsphones": 4402, "bradstone": 4403, "leadinginlocal": 4404, "itunesconnect": 4405, "backend": 4406, "slap": 4407, "ux": 4408, "vague": 4409, "ahoy": 4410, "jk": 4411, "hyped": 4412, "dot": 4413, "com": 4414, "successfully": 4415, "moms": 4416, "otterbox": 4417, "barapple": 4418, "helped": 4419, "comp": 4420, "wking": 4421, "atari": 4422, "powerpoint": 4423, "included": 4424, "bw": 4425, "autocorrected": 4426, "beiber": 4427, "angelayake": 4428, "dance": 4429, "costing": 4430, "movement": 4431, "metaphor": 4432, "dates": 4433, "horseshit": 4434, "processors": 4435, "chips": 4436, "aww": 4437, "luck": 4438, "appletvs": 4439, "co": 4440, "lem": 4441, "blondes": 4442, "kellyhclay": 4443, "nordstrom": 4444, "replaces": 4445, "veriphone": 4446, "funny": 4447, "applesetsthetrend": 4448, "sctratched": 4449, "bradpaisley": 4450, "oops": 4451, "esteelauder": 4452, "ralphlauren": 4453, "katespadeny": 4454, "wishlist": 4455, "eem": 4456, "handles": 4457, "customerserviceexperience": 4458, "codygotms": 4459, "macos": 4460, "hacked": 4461, "tear": 4462, "disabled": 4463, "kaminablue": 4464, "mixbreedlexie": 4465, "applelive": 4466, "fingerscrossed": 4467, "verizonsupport": 4468, "circles": 4469, "monngonn": 4470, "absolute": 4471, "ifail": 4472, "dooms": 4473, "discovered": 4474, "th": 4475, "muse": 4476, "technologically": 4477, "technologybased": 4478, "masters": 4479, "wierd": 4480, "mistakes": 4481, "djkevinhayes": 4482, "erases": 4483, "digs": 4484, "whack": 4485, "lupefiasco": 4486, "yeagerbeats": 4487, "logicprox": 4488, "tutorial": 4489, "stepinputkeyboard": 4490, "otterboxes": 4491, "maximally": 4492, "concentrated": 4493, "uses": 4494, "jimmyfallons": 4495, "attributed": 4496, "ace": 4497, "jimmyfallon": 4498, "vocal": 4499, "thanksobama": 4500, "leaning": 4501, "societys": 4502, "makeup": 4503, "concerns": 4504, "pocs": 4505, "fed": 4506, "mustbuy": 4507, "outfit": 4508, "ipodnano": 4509, "nale": 4510, "parable": 4511, "france": 4512, "swear": 4513, "splice": 4514, "fuckshit": 4515, "destroyed": 4516, "axis": 4517, "labels": 4518, "thinkdifferent": 4519, "viable": 4520, "techfaq": 4521, "peterjmsimons": 4522, "monetizaton": 4523, "watchkit": 4524, "sadly": 4525, "realworld": 4526, "etnui": 4527, "spin": 4528, "dreams": 4529, "discussions": 4530, "illiterate": 4531, "mequit": 4532, "guessing": 4533, "iscuba": 4534, "degree": 4535, "rig": 4536, "gamed": 4537, "imask": 4538, "padi": 4539, "underwaterwearables": 4540, "cardboard": 4541, "pivot": 4542, "likewatchingpaintdry": 4543, "legendarische": 4544, "een": 4545, "mythe": 4546, "recorded": 4547, "lool": 4548, "dis": 4549, "eee": 4550, "wetin": 4551, "pilot": 4552, "fly": 4553, "graph": 4554, "qz": 4555, "bigblindz": 4556, "bbry": 4557, "cake": 4558, "hmmmmm": 4559, "steviebuckley": 4560, "strange": 4561, "disappears": 4562, "aaplwatch": 4563, "nyset": 4564, "nasdaqaapl": 4565, "pandora": 4566, "nys": 4567, "hf": 4568, "imcatnoone": 4569, "tries": 4570, "gut": 4571, "legacy": 4572, "uncool": 4573, "normally": 4574, "violating": 4575, "drakecraytel": 4576, "universal": 4577, "recall": 4578, "proceed": 4579, "genuine": 4580, "dirty": 4581, "shadow": 4582, "lghtc": 4583, "suffering": 4584, "delays": 4585, "qualcomms": 4586, "snapdragon": 4587, "aham": 4588, "cheek": 4589, "shock": 4590, "ohhshit": 4591, "noctylux": 4592, "finalcutproes": 4593, "macnificos": 4594, "refurwhat": 4595, "sub": 4596, "award": 4597, "looms": 4598, "resellers": 4599, "anticompetition": 4600, "whoops": 4601, "represents": 4602, "decipher": 4603, "isitme": 4604, "photographing": 4605, "decorations": 4606, "brookskraftfoto": 4607, "artsboston": 4608, "russell": 4609, "hedging": 4610, "bets": 4611, "defendants": 4612, "bostonholiday": 4613, "urbannutcrackers": 4614, "unhappycustomer": 4615, "theyve": 4616, "processed": 4617, "retrieve": 4618, "textmessage": 4619, "theatre": 4620, "alignment": 4621, "belgian": 4622, "holidaythemed": 4623, "radio": 4624, "stations": 4625, "throws": 4626, "lastminute": 4627, "curve": 4628, "ball": 4629, "warren": 4630, "attn": 4631, "applestorecoventgarden": 4632, "alttab": 4633, "grrrr": 4634, "usability": 4635, "belgium": 4636, "regiscollegema": 4637, "distinguished": 4638, "became": 4639, "greenest": 4640, "hannahrad": 4641, "snacks": 4642, "kymlang": 4643, "qs": 4644, "eggs": 4645, "basket": 4646, "foxconn": 4647, "proving": 4648, "unsuitable": 4649, "assembly": 4650, "bestseller": 4651, "apt": 4652, "counting": 4653, "areas": 4654, "barclayswealth": 4655, "ton": 4656, "bidu": 4657, "ntes": 4658, "resisting": 4659, "bite": 4660, "ajhontucan": 4661, "existing": 4662, "cardio": 4663, "charlesjmeyer": 4664, "hasnt": 4665, "deletegame": 4666, "orion": 4667, "reenter": 4668, "howcoolisthat": 4669, "cageyjames": 4670, "yahoonews": 4671, "aaploutside": 4672, "saves": 4673, "backups": 4674, "backed": 4675, "nontravelling": 4676, "alarming": 4677, "fray": 4678, "parents": 4679, "monitor": 4680, "dinner": 4681, "engineeringdesign": 4682, "donorschoose": 4683, "apsvirginia": 4684, "behalf": 4685, "disabilities": 4686, "xmas": 4687, "cindy": 4688, "lou": 4689, "whoville": 4690, "chief": 4691, "td": 4692, "aiming": 4693, "middecember": 4694, "panerabread": 4695, "mattnwells": 4696, "fav": 4697, "coolclimate": 4698, "merlots": 4699, "delectable": 4700, "traits": 4701, "anal": 4702, "mosttttt": 4703, "fundulz": 4704, "oracle": 4705, "startcom": 4706, "roster": 4707, "unsubscribe": 4708, "deletearchive": 4709, "swiping": 4710, "squad": 4711, "comics": 4712, "dccomics": 4713, "appleturkey": 4714, "howithwhy": 4715, "undo": 4716, "watched": 4717, "spite": 4718, "individualizing": 4719, "sucking": 4720, "leaving": 4721, "environment": 4722, "gva": 4723, "lounge": 4724, "sight": 4725, "undetermined": 4726, "ipxs": 4727, "rhdrum": 4728, "hayman": 4729, "consulting": 4730, "umich": 4731, "embroi": 4732, "dltr": 4733, "thi": 4734, "allandthompson": 4735, "virus": 4736, "explode": 4737, "cared": 4738, "ravimikkelsen": 4739, "showtimes": 4740, "acura": 4741, "fooling": 4742, "magic": 4743, "carpet": 4744, "sophian": 4745, "era": 4746, "fearmongering": 4747, "vendors": 4748, "latism": 4749, "aaplubs": 4750, "wonderfull": 4751, "bath": 4752, "calemcmartin": 4753, "downgraded": 4754, "larger": 4755, "indian": 4756, "wearabledevices": 4757, "lappy": 4758, "cred": 4759, "cardpaypalgift": 4760, "attach": 4761, "decent": 4762, "unix": 4763, "everafter": 4764, "kaspersky": 4765, "cheery": 4766, "attract": 4767, "paintfootball": 4768, "emojimakers": 4769, "fangirls": 4770, "unexpected": 4771, "bringing": 4772, "billionaires": 4773, "tracks": 4774, "eats": 4775, "resource": 4776, "americanexpress": 4777, "holders": 4778, "opted": 4779, "promotions": 4780, "markzuckerberg": 4781, "jamelia": 4782, "senisbs": 4783, "mentioned": 4784, "preorder": 4785, "guide": 4786, "humble": 4787, "frid": 4788, "aaplwhy": 4789, "taraluv": 4790, "talents": 4791, "reliable": 4792, "faustadium": 4793, "fauathletics": 4794, "fau": 4795, "bocaraton": 4796, "floridaa": 4797, "howithif": 4798, "resolved": 4799, "brandivatemktg": 4800, "integrity": 4801, "cures": 4802, "evils": 4803, "aaplpale": 4804, "hoarse": 4805, "videotaped": 4806, "yhis": 4807, "ohone": 4808, "embarrassed": 4809, "ubers": 4810, "rank": 4811, "likes": 4812, "quicker": 4813, "roadmapscome": 4814, "fork": 4815, "evening": 4816, "crimped": 4817, "relations": 4818, "jdelaneyxo": 4819, "isee": 4820, "dontupdateitunes": 4821, "thatb": 4822, "lover": 4823, "ericgarnet": 4824, "ny": 4825, "icantbreath": 4826, "silence": 4827, "mikebrown": 4828, "checked": 4829, "slippery": 4830, "soap": 4831, "disguised": 4832, "ultimate": 4833, "factor": 4834, "usemuzli": 4835, "appadvice": 4836, "ernestszoka": 4837, "superstoked": 4838, "ah": 4839, "eliransapir": 4840, "duly": 4841, "noted": 4842, "danielllebaker": 4843, "wwa": 4844, "sums": 4845, "gravitational": 4846, "shocked": 4847, "honest": 4848, "fanaticism": 4849, "dislike": 4850, "mouse": 4851, "inceased": 4852, "letmecreate": 4853, "dang": 4854, "disappoint": 4855, "crashed": 4856, "tabs": 4857, "kronykal": 4858, "coffees": 4859, "pleaaaase": 4860, "men": 4861, "fashionshowmakl": 4862, "metzzler": 4863, "interviewno": 4864, "specialist": 4865, "teachers": 4866, "humanrights": 4867, "wecantbreathe": 4868, "fifth": 4869, "avenue": 4870, "appreciate": 4871, "cyndi": 4872, "lauper": 4873, "cinna": 4874, "rockefeller": 4875, "cgk": 4876, "hr": 4877, "blacklivesmatter": 4878, "silicone": 4879, "peeling": 4880, "aviate": 4881, "customization": 4882, "themes": 4883, "therealjonyive": 4884, "iosissues": 4885, "defect": 4886, "scratches": 4887, "sleeping": 4888, "beauty": 4889, "heating": 4890, "rlly": 4891, "suits": 4892, "probly": 4893, "lie": 4894, "organized": 4895, "crowds": 4896, "duck": 4897, "lasagna": 4898, "laryngitis": 4899, "mixed": 4900, "yooo": 4901, "uspurchased": 4902, "jamisonfoser": 4903, "fucjing": 4904, "didng": 4905, "afp": 4906, "requests": 4907, "warrant": 4908, "pushback": 4909, "lawyer": 4910, "courts": 4911, "lukesmut": 4912, "daviddavidw": 4913, "locks": 4914, "preordered": 4915, "tehhgoat": 4916, "youd": 4917, "khloe": 4918, "kardashian": 4919, "favorites": 4920, "biased": 4921, "paisleysmithh": 4922, "axolrose": 4923, "fab": 4924, "aaplcorrupt": 4925, "raiders": 4926, "weeksapple": 4927, "claiming": 4928, "dampness": 4929, "favor": 4930, "jimmymujaj": 4931, "fucker": 4932, "hoe": 4933, "multiply": 4934, "hostile": 4935, "tn": 4936, "unilever": 4937, "indemand": 4938, "employers": 4939, "linkedin": 4940, "hundreds": 4941, "yellow": 4942, "bumrushed": 4943, "stolen": 4944, "xo": 4945, "dustynmichael": 4946, "frustrated": 4947, "unsuccessfully": 4948, "outgoing": 4949, "smtp": 4950, "configuration": 4951, "abbeyivey": 4952, "itsblaney": 4953, "posthumous": 4954, "victim": 4955, "lawkitson": 4956, "example": 4957, "innovate": 4958, "briankardell": 4959, "kept": 4960, "plant": 4961, "seed": 4962, "guaranteed": 4963, "appletweets": 4964, "supercheap": 4965, "illogikal": 4966, "gahongkong": 4967, "panel": 4968, "hks": 4969, "instagrammers": 4970, "lielaineyl": 4971, "ccnimbu": 4972, "jethromullen": 4973, "vivien": 4974, "liu": 4975, "albums": 4976, "illegal": 4977, "saylike": 4978, "titianfight": 4979, "critic": 4980, "speculation": 4981, "amctheatres": 4982, "sits": 4983, "watcha": 4984, "iron": 4985, "installations": 4986, "bloody": 4987, "muchtech": 4988, "infreefall": 4989, "pivoting": 4990, "regain": 4991, "footing": 4992, "everlovin": 4993, "arrows": 4994, "navigate": 4995, "reception": 4996, "nomoreapple": 4997, "lady": 4998, "regentsstreet": 4999, "saver": 5000, "froze": 5001, "deet": 5002, "rebel": 5003, "luddite": 5004, "allisonsalz": 5005, "timesofindia": 5006, "annoys": 5007, "barrrymitchell": 5008, "boysquotations": 5009, "alreadt": 5010, "specu": 5011, "connections": 5012, "net": 5013, "interruptus": 5014, "disappeared": 5015, "unread": 5016, "accidentally": 5017, "funconvo": 5018, "crisis": 5019, "avoided": 5020, "daughters": 5021, "hurts": 5022, "lanadelreystan": 5023, "yourself": 5024, "sweet": 5025, "vacations": 5026, "sovereignbankus": 5027, "taped": 5028, "lots": 5029, "helpplease": 5030, "harddrive": 5031, "homework": 5032, "northmantrader": 5033, "candidates": 5034, "nflx": 5035, "pcln": 5036, "parabolic": 5037, "restored": 5038, "complaint": 5039, "adjust": 5040, "onlinefootprint": 5041, "modicumofprudence": 5042, "fans": 5043, "scramble": 5044, "sons": 5045, "wemo": 5046, "besides": 5047, "basic": 5048, "necessities": 5049, "gas": 5050, "groceries": 5051, "mcdonaldscorp": 5052, "clunky": 5053, "cantgoback": 5054, "misssnowleopard": 5055, "inapp": 5056, "approvals": 5057, "moneylosing": 5058, "wearsy": 5059, "tmobileapple": 5060, "cellular": 5061, "regret": 5062, "installing": 5063, "yobitch": 5064, "icymi": 5065, "supposed": 5066, "ins": 5067, "staged": 5068, "peaceful": 5069, "demonstrations": 5070, "thinkbeforeyoubuy": 5071, "oneplus": 5072, "hypedtunes": 5073, "incl": 5074, "michaelstephen": 5075, "forgot": 5076, "deviceon": 5077, "throughout": 5078, "h": 5079, "angry": 5080, "hurr": 5081, "keelzy": 5082, "beyonce": 5083, "spelling": 5084, "harman": 5085, "kardon": 5086, "esquire": 5087, "speakerphone": 5088, "inventing": 5089, "brightness": 5090, "dimmers": 5091, "hungover": 5092, "otherwise": 5093, "kateupton": 5094, "addition": 5095, "nonexistent": 5096, "gameofwar": 5097, "wired": 5098, "icon": 5099, "onto": 5100, "eliminate": 5101, "payitsafe": 5102, "geez": 5103, "january": 5104, "postpone": 5105, "goodjob": 5106, "bethesda": 5107, "md": 5108, "bhphotovideo": 5109, "hposner": 5110, "nerd": 5111, "championship": 5112, "typicaistoner": 5113, "lgbt": 5114, "electrical": 5115, "jony": 5116, "zdarsky": 5117, "eyesight": 5118, "extensions": 5119, "lighten": 5120, "fireatwill": 5121, "began": 5122, "smoking": 5123, "nbcnewyork": 5124, "encourages": 5125, "nypdcommaffairs": 5126, "isis": 5127, "arrest": 5128, "dupes": 5129, "trespass": 5130, "pantsupdontloot": 5131, "earpodstm": 5132, "twist": 5133, "dipshits": 5134, "monthd": 5135, "hiiamaaron": 5136, "canadian": 5137, "icreep": 5138, "youkantfindme": 5139, "kashka": 5140, "itsashleyperez": 5141, "obsession": 5142, "lmao": 5143, "ahahahah": 5144, "ghetto": 5145, "child": 5146, "youuu": 5147, "applesantamonica": 5148, "exciting": 5149, "jojoxsweat": 5150, "necks": 5151, "personally": 5152, "dent": 5153, "nevbackwoods": 5154, "swiftaddiction": 5155, "quicktime": 5156, "movs": 5157, "webpages": 5158, "markzuckerbergf": 5159, "sparring": 5160, "combine": 5161, "efforts": 5162, "solid": 5163, "worthless": 5164, "walking": 5165, "anna": 5166, "rayalexander": 5167, "byke": 5168, "aaplipad": 5169, "xperia": 5170, "s": 5171, "cancer": 5172, "communist": 5173, "atheist": 5174, "washed": 5175, "simpsons": 5176, "dowmload": 5177, "wifegoingtosleep": 5178, "yassssss": 5179, "racist": 5180, "yungshamwow": 5181, "dog": 5182, "explained": 5183, "bunkbed": 5184, "workaround": 5185, "fucka": 5186, "de": 5187, "infested": 5188, "lucys": 5189, "hatw": 5190, "terrifying": 5191, "hikes": 5192, "checks": 5193, "appiegivevvay": 5194, "affiliated": 5195, "fuc": 5196, "reversed": 5197, "inspiring": 5198, "smash": 5199, "invention": 5200, "stops": 5201, "smashing": 5202, "hahahaha": 5203, "trademarked": 5204, "unwanted": 5205, "eight": 5206, "jabs": 5207, "pricey": 5208, "totterdells": 5209, "cloned": 5210, "ideasappieofflciai": 5211, "london": 5212, "festival": 5213, "capitalist": 5214, "necessary": 5215, "grants": 5216, "uis": 5217, "perk": 5218, "funfun": 5219, "nightspost": 5220, "celebration": 5221, "rfrancoben": 5222, "yeeaaayyyawesome": 5223, "roccckkkssss": 5224, "aaplcheck": 5225, "accumulating": 5226, "sporadically": 5227, "particular": 5228, "yogscastsjin": 5229, "yogscast": 5230, "sponsored": 5231, "xd": 5232, "supported": 5233, "nonbanks": 5234, "moven": 5235, "venmo": 5236, "fintech": 5237, "stevedenning": 5238, "master": 5239, "door": 5240, "cybersecurity": 5241, "insight": 5242, "foot": 5243, "technologies": 5244, "inequality": 5245, "customerservice": 5246, "yosimite": 5247, "module": 5248, "aht": 5249, "discontinued": 5250, "crmsuite": 5251, "lab": 5252, "nationally": 5253, "stem": 5254, "ap": 5255, "flac": 5256, "covert": 5257, "galengering": 5258, "applei": 5259, "reminding": 5260, "getlolo": 5261, "bec": 5262, "realise": 5263, "bend": 5264, "aaplhas": 5265, "dmv": 5266, "pipes": 5267, "electronics": 5268, "brings": 5269, "drives": 5270, "nuts": 5271, "classes": 5272, "dualsim": 5273, "travelling": 5274, "types": 5275, "sammcmanusss": 5276, "happend": 5277, "odd": 5278, "readd": 5279, "depriving": 5280, "jams": 5281, "figuring": 5282, "honored": 5283, "easily": 5284, "elitist": 5285, "toy": 5286, "versus": 5287, "whose": 5288, "intuitive": 5289, "overheard": 5290, "letters": 5291, "applefail": 5292, "item": 5293, "starts": 5294, "tweaking": 5295, "hyperextended": 5296, "thumb": 5297, "reaching": 5298, "thestruggleisreal": 5299, "lgelectronics": 5300, "g": 5301, "pebble": 5302, "club": 5303, "amymc": 5304, "footage": 5305, "computerhistory": 5306, "christiesinc": 5307, "consumes": 5308, "pausing": 5309, "indicators": 5310, "waltmossberg": 5311, "unveils": 5312, "lettering": 5313, "backtofront": 5314, "gullible": 5315, "jumps": 5316, "etsy": 5317, "postman": 5318, "overtime": 5319, "section": 5320, "technologyis": 5321, "undesirable": 5322, "stopping": 5323, "bumped": 5324, "nicolemoudaber": 5325, "artist": 5326, "posts": 5327, "ways": 5328, "doing": 5329, "yahootech": 5330, "smashbc": 5331, "sensor": 5332, "tweeks": 5333, "motor": 5334, "senses": 5335, "ratio": 5336, "wishes": 5337, "offffff": 5338, "kapelianis": 5339, "postelection": 5340, "motors": 5341, "steam": 5342, "lisapjackson": 5343, "stats": 5344, "recycling": 5345, "refuses": 5346, "knowing": 5347, "wafwoft": 5348, "graphic": 5349, "thomasaugusto": 5350, "judiciously": 5351, "listed": 5352, "virtually": 5353, "imaginable": 5354, "neglects": 5355, "podcasts": 5356, "aaplbuzz": 5357, "delias": 5358, "iflipphone": 5359, "nydailynews": 5360, "samsock": 5361, "ought": 5362, "donating": 5363, "portion": 5364, "textinghow": 5365, "dial": 5366, "insteadwhataconcept": 5367, "appleaid": 5368, "microchips": 5369, "pill": 5370, "singapore": 5371, "mrtomeoni": 5372, "robinatc": 5373, "smile": 5374, "aaplexchange": 5375, "passport": 5376, "load": 5377, "ayo": 5378, "slid": 5379, "mobiggaa": 5380, "evolution": 5381, "fricking": 5382, "brandiglanville": 5383, "ikerscasillas": 5384, "googling": 5385, "snap": 5386, "txts": 5387, "mins": 5388, "texting": 5389, "bln": 5390, "penalty": 5391, "litigati": 5392, "bat": 5393, "signal": 5394, "hmm": 5395, "flickerflash": 5396, "swipe": 5397, "realityfull": 5398, "ibookstore": 5399, "lowest": 5400, "drug": 5401, "reject": 5402, "micromaxmobile": 5403, "onlinegaming": 5404, "wowen": 5405, "imovie": 5406, "screws": 5407, "project": 5408, "cons": 5409, "acct": 5410, "drdre": 5411, "earplugs": 5412, "soundplugs": 5413, "withbleachersmusic": 5414, "notifying": 5415, "psycho": 5416, "e": 5417, "landscapetwitter": 5418, "positioning": 5419, "geekcentric": 5420, "gadget": 5421, "aaplcorporate": 5422, "cehajek": 5423, "ellyeah": 5424, "vine": 5425, "liiiiife": 5426, "ohhh": 5427, "yeaaaaah": 5428, "comet": 5429, "firmly": 5430, "reasserting": 5431, "mosthated": 5432, "corporations": 5433, "justnotabumfluffbohemian": 5434, "ginza": 5435, "applephania": 5436, "photography": 5437, "dam": 5438, "hav": 5439, "log": 5440, "argh": 5441, "tcp": 5442, "disc": 5443, "bucks": 5444, "assholes": 5445, "fuuuuccckkkk": 5446, "presence": 5447, "cities": 5448, "towns": 5449, "equip": 5450, "macbooks": 5451, "sims": 5452, "reader": 5453, "mobileoffice": 5454, "userstory": 5455, "juicypotato": 5456, "tbh": 5457, "jaureganoo": 5458, "riot": 5459, "pitchforks": 5460, "nd": 5461, "doin": 5462, "applewatches": 5463, "pants": 5464, "manage": 5465, "wringe": 5466, "poorest": 5467, "yaaass": 5468, "appleholidays": 5469, "autocorrectfail": 5470, "yungjoseg": 5471, "bigappshoppingdays": 5472, "ipadair": 5473, "ditch": 5474, "tomtom": 5475, "publish": 5476, "nationwide": 5477, "cry": 5478, "category": 5479, "mainenitin": 5480, "hanging": 5481, "snowbirds": 5482, "sometime": 5483, "doubled": 5484, "thicker": 5485, "sturdier": 5486, "lens": 5487, "flush": 5488, "stress": 5489, "pixelmator": 5490, "honors": 5491, "bonked": 5492, "screaming": 5493, "ear": 5494, "kickbacks": 5495, "leak": 5496, "ideology": 5497, "stinking": 5498, "nov": 5499, "export": 5500, "expectations": 5501, "wea": 5502, "manually": 5503, "chicfilet": 5504, "mug": 5505, "daughter": 5506, "brought": 5507, "talksabsolutely": 5508, "leaking": 5509, "asian": 5510, "alle": 5511, "zu": 5512, "omd": 5513, "hlpstaluke": 5514, "stepped": 5515, "fined": 5516, "ahhhh": 5517, "y": 5518, "madridxanadu": 5519, "unfulfilled": 5520, "march": 5521, "visually": 5522, "impaired": 5523, "inspiration": 5524, "inawe": 5525, "welldone": 5526, "techsupport": 5527, "fore": 5528, "forced": 5529, "rethink": 5530, "surges": 5531, "pricks": 5532, "brandfuel": 5533, "minneapolis": 5534, "brr": 5535, "appropriate": 5536, "multifolds": 5537, "ev": 5538, "cars": 5539, "suvs": 5540, "chinasupercharged": 5541, "flashing": 5542, "ordering": 5543, "reps": 5544, "behavior": 5545, "sponsorship": 5546, "swatch": 5547, "cooperation": 5548, "uncle": 5549, "mike": 5550, "woke": 5551, "minus": 5552, "diff": 5553, "shoppers": 5554, "victoriassecret": 5555, "slide": 5556, "opens": 5557, "fill": 5558, "prev": 5559, "earliest": 5560, "describes": 5561, "restarting": 5562, "headed": 5563, "dayoffduties": 5564, "jeffstaple": 5565, "listing": 5566, "jane": 5567, "horvath": 5568, "wildin": 5569, "steadily": 5570, "smileforgoogle": 5571, "yknow": 5572, "restarted": 5573, "onlyme": 5574, "branded": 5575, "mitrebox": 5576, "vidfall": 5577, "vidfallauction": 5578, "conputer": 5579, "kayhlogan": 5580, "void": 5581, "awakens": 5582, "hedge": 5583, "assigned": 5584, "aa": 5585, "morningstar": 5586, "painfully": 5587, "testflightapp": 5588, "telsa": 5589, "talent": 5590, "musks": 5591, "bright": 5592, "permanent": 5593, "basis": 5594, "subject": 5595, "folk": 5596, "lockouts": 5597, "resets": 5598, "crush": 5599, "mydigitalcoco": 5600, "acting": 5601, "wonky": 5602, "factory": 5603, "reinstalled": 5604, "boosts": 5605, "abandoned": 5606, "googlemusic": 5607, "unsubsidized": 5608, "fully": 5609, "macintosh": 5610, "sequoia": 5611, "surely": 5612, "peak": 5613, "knock": 5614, "naked": 5615, "fetching": 5616, "appleprobs": 5617, "appleproblems": 5618, "sforsimrat": 5619, "abt": 5620, "lemon": 5621, "savings": 5622, "regretting": 5623, "dellcares": 5624, "dellhell": 5625, "condo": 5626, "dedicated": 5627, "warrants": 5628, "priceless": 5629, "surprises": 5630, "chain": 5631, "terms": 5632, "performance": 5633, "cookery": 5634, "listings": 5635, "outstanding": 5636, "exchanging": 5637, "customerforlife": 5638, "row": 5639, "memer": 5640, "nigxnog": 5641, "punk": 5642, "debunking": 5643, "yesh": 5644, "unstoppable": 5645, "gameoftheyear": 5646, "scarlettsinatra": 5647, "avoiding": 5648, "bulls": 5649, "citis": 5650, "optimism": 5651, "starring": 5652, "pulsepointbuzz": 5653, "acrossthebartv": 5654, "bethesdarow": 5655, "jenna": 5656, "brandon": 5657, "conclusion": 5658, "durability": 5659, "appieofflciai": 5660, "grip": 5661, "taxes": 5662, "cares": 5663, "false": 5664, "prophetsi": 5665, "granitewinger": 5666, "horrible": 5667, "packaging": 5668, "inconsistency": 5669, "overall": 5670, "weirdness": 5671, "controls": 5672, "archive": 5673, "tryng": 5674, "cooperating": 5675, "tale": 5676, "blogs": 5677, "upload": 5678, "refund": 5679, "willliamlemar": 5680, "shattered": 5681, "blown": 5682, "additional": 5683, "symptom": 5684, "overvalued": 5685, "justinbieber": 5686, "silent": 5687, "nominated": 5688, "topped": 5689, "fuss": 5690, "ab": 5691, "standing": 5692, "troll": 5693, "legends": 5694, "ihcfo": 5695, "limb": 5696, "cooke": 5697, "hits": 5698, "nail": 5699, "mondays": 5700, "chevron": 5701, "sealed": 5702, "daring": 5703, "fireball": 5704, "transmit": 5705, "takeaways": 5706, "jasonhiner": 5707, "realistic": 5708, "songlength": 5709, "drum": 5710, "drummer": 5711, "selected": 5712, "grant": 5713, "hearthstone": 5714, "expansion": 5715, "goblins": 5716, "gnomes": 5717, "hearin": 5718, "alot": 5719, "drums": 5720, "ahem": 5721, "speaker": 5722, "nvm": 5723, "aaplsee": 5724, "cbchomestretch": 5725, "desk": 5726, "luckily": 5727, "nearby": 5728, "providing": 5729, "entry": 5730, "jw": 5731, "brettgilmour": 5732, "interview": 5733, "carmilevy": 5734, "grief": 5735, "sucky": 5736, "offense": 5737, "ewwwwww": 5738, "rap": 5739, "song": 5740, "gross": 5741, "jarring": 5742, "sonar": 5743, "ableton": 5744, "livepropellerhead": 5745, "reasonreaper": 5746, "mixcraft": 5747, "ghz": 5748, "ssd": 5749, "gt": 5750, "citi": 5751, "plummeting": 5752, "classicipod": 5753, "cantbelieveitsgone": 5754, "passwd": 5755, "achilles": 5756, "port": 5757, "abck": 5758, "therefore": 5759, "undeserved": 5760, "kissmyass": 5761, "talkback": 5762, "colddimsum": 5763, "girl": 5764, "newphone": 5765, "digging": 5766, "pappajohns": 5767, "daycomplete": 5768, "whitepower": 5769, "hatemusic": 5770, "hatespeech": 5771, "fastcoexist": 5772, "mattgarber": 5773, "levifig": 5774, "dcurtis": 5775, "hah": 5776, "defending": 5777, "dime": 5778, "template": 5779, "coderinheels": 5780, "drblack": 5781, "watcgirl": 5782, "isabelladegen": 5783, "saigeist": 5784, "optionsfeed": 5785, "gxldblvnts": 5786, "swype": 5787, "asus": 5788, "laggy": 5789, "excellence": 5790, "recentrates": 5791, "vrich": 5792, "metallic": 5793, "natalie": 5794, "portman": 5795, "verso": 5796, "celebrates": 5797, "answers": 5798, "oovoo": 5799, "armitagina": 5800, "ra": 5801, "lp": 5802, "le": 5803, "stickybrand": 5804, "exploded": 5805, "electricity": 5806, "ps": 5807, "studies": 5808, "neal": 5809, "bootz": 5810, "refocus": 5811, "peace": 5812, "usa": 5813, "nowdays": 5814, "alienating": 5815, "blocking": 5816, "interstates": 5817, "overrated": 5818, "eternalmuke": 5819, "stooges": 5820, "sealskevin": 5821, "frick": 5822, "staging": 5823, "ar": 5824, "hair": 5825, "fallontimberlake": 5826, "temper": 5827, "tantrum": 5828, "tantrums": 5829, "destructive": 5830, "whites": 5831, "democratswarontruth": 5832, "breach": 5833, "proposition": 5834, "intensifies": 5835, "continuation": 5836, "clown": 5837, "relieve": 5838, "drugs": 5839, "sex": 5840, "morphing": 5841, "praetorian": 5842, "guards": 5843, "unaware": 5844, "plays": 5845, "lgus": 5846, "comparephones": 5847, "applevslg": 5848, "sharneal": 5849, "hellvcopter": 5850, "fansite": 5851, "recommends": 5852, "usalivestrong": 5853, "city": 5854, "hal": 5855, "mayors": 5856, "station": 5857, "blows": 5858, "phony": 5859, "dieing": 5860, "chicago": 5861, "stuntbrain": 5862, "protesting": 5863, "spare": 5864, "okfatty": 5865, "usps": 5866, "package": 5867, "tracking": 5868, "jpetersen": 5869, "droplr": 5870, "macpro": 5871, "std": 5872, "hd": 5873, "synch": 5874, "witho": 5875, "windstorm": 5876, "googlehangouts": 5877, "funded": 5878, "ows": 5879, "distraction": 5880, "failures": 5881, "aca": 5882, "amnestytaxesdebteconomy": 5883, "auugmotionsynth": 5884, "trombone": 5885, "addis": 5886, "abdinsyakirin": 5887, "arstechnica": 5888, "joemullin": 5889, "et": 5890, "alget": 5891, "stb": 5892, "bypass": 5893, "cablesatellite": 5894, "applied": 5895, "skillz": 5896, "twain": 5897, "somehow": 5898, "ayyy": 5899, "fourth": 5900, "wallet": 5901, "biztechltd": 5902, "investor": 5903, "chan": 5904, "xiaomis": 5905, "jun": 5906, "heres": 5907, "sim": 5908, "sensitive": 5909, "cold": 5910, "smfh": 5911, "italicize": 5912, "fios": 5913, "plastic": 5914, "stbs": 5915, "dbreeeezy": 5916, "betrayed": 5917, "adnantariqbajwa": 5918, "airmun": 5919, "horrific": 5920, "hahaha": 5921, "infinite": 5922, "stab": 5923, "angelicaxpham": 5924, "exxon": 5925, "mobil": 5926, "corpora": 5927, "dope": 5928, "except": 5929, "window